<?xml version="1.0" encoding="utf-8"?>
<Bundle xmlns="http://hl7.org/fhir">
  <id value="564f3082-9160-41a2-8497-49abd9f914bf" />
  <meta>
    <profile value="http://medcomfhir.dk/ig/carecommunication/StructureDefinition/medcom-careCommunication-message" />
  </meta>
  <type value="message" />
  <timestamp value="2025-03-19T13:30:57.757+01:00" />
  <entry>
    <fullUrl value="https://eghealthcarefhir.dk/carecommunication/MessageHeader/97782c80-742a-4d02-af6d-8f5d10273733" />
    <resource>
      <MessageHeader>
        <id value="97782c80-742a-4d02-af6d-8f5d10273733" />
        <meta>
          <profile value="http://medcomfhir.dk/ig/carecommunication/StructureDefinition/medcom-careCommunication-messageHeader" />
        </meta>
        <text>
          <status value="generated" />
          <div xmlns="http://www.w3.org/1999/xhtml">
            <p>
              <b>
                <a name="MessageHeader_97782c80-742a-4d02-af6d-8f5d10273733">Generated Narrative: MessageHeader</a>
              </b>
            </p>
            <div style="display: inline-block; background-color: #d9e0e7; padding: 6px; margin: 4px; border: 1px solid #8da1b4; border-radius: 5px; line-height: 60%">
              <p style="margin-top: 0px">Resource MessageHeader "97782c80-742a-4d02-af6d-8f5d10273733"</p>
              <p style="margin-bottom: 0px">Profile: <a href="http://medcomfhir.dk/ig/carecommunication/StructureDefinition-medcom-careCommunication-messageHeader.html">http://medcomfhir.dk/ig/carecommunication/StructureDefinition/medcom-careCommunication-messageHeader</a></p>
            </div>
            <p>
              <b>Event</b>: care-communication-message (<a href="https://medcomfhir.dk/ig/terminology/ValueSet-medcom-messaging-messageTypes.html">MedComMessagingEventCodes</a>)</p>
            <p>
              <b>Definition</b>: <code>http://medcomfhir.dk/ig/carecommunication/medcom-careCommunication-message-definition|4.0.0</code></p>
            <h3>Destinations</h3>
            <table style="border-collapse: collapse">
              <tr>
                <td style="border: 1px solid black; padding: 5px">
                  <b>Endpoint</b>
                </td>
                <td style="border: 1px solid black; padding: 5px">
                  <b>Receiver</b>
                </td>
                <td style="border: 1px solid black; padding: 5px">
                  <b>Use</b>
                </td>
              </tr>
              <tr>
                <td style="border: 1px solid black; padding: 5px">
                  <a href="https://sor2.sum.dsdn.dk/#id=1017421000016003">https://sor2.sum.dsdn.dk/#id=1017421000016003</a>
                </td>
                <td style="border: 1px solid black; padding: 5px">
                  <a href="#Organization_5559b731-171a-4f0c-8e61-23c54f1cdf6f">Organization/5559b731-171a-4f0c-8e61-23c54f1cdf6f</a>
                </td>
                <td style="border: 1px solid black; padding: 5px">primary (<a href="https://medcomfhir.dk/ig/terminology/CodeSystem-medcom-messaging-destinationUse.html">MedComMessagingDestinationUse</a>)</td>
              </tr>
            </table>
            <h3>Source</h3>
            <table style="border-collapse: collapse">
              <tr>
                <td style="border: 1px solid black; padding: 5px">
                  <b>Endpoint</b>
                </td>
                <td style="border: 1px solid black; padding: 5px">
                  <b>Sender</b>
                </td>
              </tr>
              <tr>
                <td style="border: 1px solid black; padding: 5px">
                  <a href="https://sor2.sum.dsdn.dk/#id=330461000016004">https://sor2.sum.dsdn.dk/#id=330461000016004</a>
                </td>
                <td style="border: 1px solid black; padding: 5px">
                  <a href="#Organization_9b668ecc-a9e4-4bbb-968a-d27b9894a8c9">Organization/9b668ecc-a9e4-4bbb-968a-d27b9894a8c9</a>
                </td>
              </tr>
            </table>
            <p>
              <b>Focus</b>: <a href="#Communication_adee266a-c680-43b5-a9e1-e9d6450df80a">Communication/adee266a-c680-43b5-a9e1-e9d6450df80a</a></p>
          </div>
        </text>
        <eventCoding>
          <system value="http://medcomfhir.dk/ig/terminology/CodeSystem/medcom-messaging-eventCodes" />
          <code value="care-communication-message" />
        </eventCoding>
        <destination>
          <extension url="http://medcomfhir.dk/ig/messaging/StructureDefinition/medcom-messaging-destinationUseExtension">
            <valueCoding>
              <system value="http://medcomfhir.dk/ig/terminology/CodeSystem/medcom-messaging-destinationUse" />
              <code value="primary" />
            </valueCoding>
          </extension>
          <endpoint value="https://sor2.sum.dsdn.dk/#id=1017421000016003" />
          <receiver>
            <reference value="Organization/5559b731-171a-4f0c-8e61-23c54f1cdf6f" />
          </receiver>
        </destination>
        <sender>
          <reference value="Organization/9b668ecc-a9e4-4bbb-968a-d27b9894a8c9" />
        </sender>
        <source>
          <endpoint value="https://sor2.sum.dsdn.dk/#id=330461000016004" />
        </source>
        <focus>
          <reference value="Communication/adee266a-c680-43b5-a9e1-e9d6450df80a" />
        </focus>
        <definition value="http://medcomfhir.dk/ig/carecommunication/medcom-careCommunication-message-definition|4.0.0" />
      </MessageHeader>
    </resource>
  </entry>
  <entry>
    <fullUrl value="https://eghealthcarefhir.dk/carecommunication/Patient/d37db208-46b7-429b-9e03-99d029f79776" />
    <resource>
      <Patient>
        <id value="d37db208-46b7-429b-9e03-99d029f79776" />
        <meta>
          <profile value="http://medcomfhir.dk/ig/core/StructureDefinition/medcom-core-patient" />
        </meta>
        <text>
          <status value="generated" />
          <div xmlns="http://www.w3.org/1999/xhtml">
            <p>
              <b>
                <a name="Patient_d37db208-46b7-429b-9e03-99d029f79776">Generated Narrative: Patient</a>
              </b>
            </p>
            <div style="display: inline-block; background-color: #d9e0e7; padding: 6px; margin: 4px; border: 1px solid #8da1b4; border-radius: 5px; line-height: 60%">
              <p style="margin-top: 0px">Resource Patient "d37db208-46b7-429b-9e03-99d029f79776"</p>
              <p style="margin-bottom: 0px">Profile: <a href="http://medcomfhir.dk/ig/core/StructureDefinition-medcom-core-patient.html">http://medcomfhir.dk/ig/core/StructureDefinition/medcom-core-patient</a></p>
            </div>
            <h3>Identifiers</h3>
            <table style="border-collapse: collapse">
              <tr>
                <td style="border: 1px solid black; padding: 5px">
                  <b>System</b>
                </td>
                <td style="border: 1px solid black; padding: 5px">
                  <b>Id</b>
                </td>
              </tr>
              <tr>
                <td style="border: 1px solid black; padding: 5px">urn:oid:1.2.208.176.1.2</td>
                <td style="border: 1px solid black; padding: 5px">2509479989</td>
              </tr>
            </table>
            <p>
              <b>Name</b>: Elmer Bruno Test</p>
            <p>
              <b>Address</b>: Testdrømmehaven 48 26, 3400 Hillerød</p>
          </div>
        </text>
        <identifier>
          <system value="urn:oid:1.2.208.176.1.2" />
          <value value="2509479989" />
        </identifier>
        <name>
          <use value="official" />
          <family value="Test" />
          <given value="Elmer Bruno" />
        </name>
        <telecom>
          <system value="phone" />
          <value value="12345678" />
          <use value="mobile" />
        </telecom>
        <telecom>
          <system value="phone" />
          <value value="87654321" />
          <use value="work" />
        </telecom>
        <address>
          <line value="Testdrømmehaven 48 26" />
          <city value="Hillerød" />
          <postalCode value="3400" />
        </address>
      </Patient>
    </resource>
  </entry>
  <entry>
    <fullUrl value="https://eghealthcarefhir.dk/carecommunication/Communication/adee266a-c680-43b5-a9e1-e9d6450df80a" />
    <resource>
      <Communication>
        <id value="adee266a-c680-43b5-a9e1-e9d6450df80a" />
        <meta>
          <profile value="http://medcomfhir.dk/ig/carecommunication/StructureDefinition/medcom-careCommunication-communication" />
        </meta>
        <text>
          <status value="generated" />
          <div xmlns="http://www.w3.org/1999/xhtml">
            <p>
              <b>
                <a name="Communication_adee266a-c680-43b5-a9e1-e9d6450df80a">Generated Narrative: Communication</a>
              </b>
            </p>
            <div style="display: inline-block; background-color: #d9e0e7; padding: 6px; margin: 4px; border: 1px solid #8da1b4; border-radius: 5px; line-height: 60%">
              <p style="margin-top: 0px">Resource Communication "adee266a-c680-43b5-a9e1-e9d6450df80a"</p>
              <p style="margin-bottom: 0px">Profile: <a href="http://medcomfhir.dk/ig/carecommunication/StructureDefinition-medcom-careCommunication-communication.html">http://medcomfhir.dk/ig/carecommunication/StructureDefinition/medcom-careCommunication-communication</a></p>
            </div>
            <p>
              <b>Identifier</b>: urn:uuid:cf2f559c-03e7-4f21-a39a-4be61ca15ae5</p>
            <p>
              <b>Status</b>: Unknown</p>
            <p>
              <b>Category</b>: regarding-referral (<a href="https://medcomfhir.dk/ig/terminology/ValueSet-medcom-careCommunication-categories.html">MedComCareCommunicationCategories</a>)</p>
            <p>
              <b>Priority</b>: Routine</p>
            <p>
              <b>Subject</b>: <a href="#Patient_d37db208-46b7-429b-9e03-99d029f79776">Patient/d37db208-46b7-429b-9e03-99d029f79776</a></p>
            <h3>Payloads</h3>
            <blockquote>
              <table style="border-collapse: collapse">
                <tr>
                  <td style="border: 1px solid black; padding: 5px">
                    <b>Identifier: </b>
                  </td>
                  <td style="border: 1px solid black; padding: 5px">
                    <a name="urn:uuid:dc2b9108-1142-4831-9441-2752a8aff09f">urn:uuid:dc2b9108-1142-4831-9441-2752a8aff09f</a>
                  </td>
                </tr>
                <tr>
                  <td style="border: 1px solid black; padding: 5px">
                    <b>Date: </b>
                  </td>
                  <td style="border: 1px solid black; padding: 5px">2025-03-19T13:30:57.757+01:00</td>
                </tr>
                <tr>
                  <td style="border: 1px solid black; padding: 5px">
                    <b>Author: </b>
                  </td>
                  <td style="border: 1px solid black; padding: 5px">
                    <a href="#PractitionerRole_922afe12-2ed4-4ceb-8223-6be96a0785f4">PractitionerRole/922afe12-2ed4-4ceb-8223-6be96a0785f4</a>
                  </td>
                </tr>
                <tr>
                  <td style="border: 1px solid black; padding: 5px">
                    <b>Contact: </b>
                  </td>
                  <td style="border: 1px solid black; padding: 5px">75757575</td>
                </tr>
                <tr>
                  <td style="border: 1px solid black; padding: 5px">
                    <b>Content: </b>
                  </td>
                  <td style="border: 1px solid black; padding: 5px">svar med vedhæftninger</td>
                </tr>
              </table>
            </blockquote>
            <blockquote>
              <table style="border-collapse: collapse">
                <tr>
                  <td style="border: 1px solid black; padding: 5px">
                    <b>Identifier: </b>
                  </td>
                  <td style="border: 1px solid black; padding: 5px">
                    <a name="urn:uuid:ee8e0cfb-e628-4b94-81c2-dc9308b5722f">urn:uuid:ee8e0cfb-e628-4b94-81c2-dc9308b5722f</a>
                  </td>
                </tr>
                <tr>
                  <td style="border: 1px solid black; padding: 5px">
                    <b>Date: </b>
                  </td>
                  <td style="border: 1px solid black; padding: 5px">2025-03-19T13:30:57.757+01:00</td>
                </tr>
                <tr>
                  <td style="border: 1px solid black; padding: 5px">
                    <b>Content: </b>
                  </td>
                  <td style="border: 1px solid black; padding: 5px">Groot (image/bmp)</td>
                </tr>
              </table>
            </blockquote>
            <blockquote>
              <table style="border-collapse: collapse">
                <tr>
                  <td style="border: 1px solid black; padding: 5px">
                    <b>Identifier: </b>
                  </td>
                  <td style="border: 1px solid black; padding: 5px">
                    <a name="urn:uuid:90b673c4-f602-40dd-a4b0-72dc8f27eac2">urn:uuid:90b673c4-f602-40dd-a4b0-72dc8f27eac2</a>
                  </td>
                </tr>
                <tr>
                  <td style="border: 1px solid black; padding: 5px">
                    <b>Date: </b>
                  </td>
                  <td style="border: 1px solid black; padding: 5px">2025-03-19T13:30:57.757+01:00</td>
                </tr>
                <tr>
                  <td style="border: 1px solid black; padding: 5px">
                    <b>Content: </b>
                  </td>
                  <td style="border: 1px solid black; padding: 5px">Groot (image/gif)</td>
                </tr>
              </table>
            </blockquote>
            <blockquote>
              <table style="border-collapse: collapse">
                <tr>
                  <td style="border: 1px solid black; padding: 5px">
                    <b>Identifier: </b>
                  </td>
                  <td style="border: 1px solid black; padding: 5px">
                    <a name="urn:uuid:6be785de-8137-4c73-8f74-7d5b892b0031">urn:uuid:6be785de-8137-4c73-8f74-7d5b892b0031</a>
                  </td>
                </tr>
                <tr>
                  <td style="border: 1px solid black; padding: 5px">
                    <b>Date: </b>
                  </td>
                  <td style="border: 1px solid black; padding: 5px">2025-03-19T13:30:57.757+01:00</td>
                </tr>
                <tr>
                  <td style="border: 1px solid black; padding: 5px">
                    <b>Content: </b>
                  </td>
                  <td style="border: 1px solid black; padding: 5px">Groot (image/jpeg)</td>
                </tr>
              </table>
            </blockquote>
            <blockquote>
              <table style="border-collapse: collapse">
                <tr>
                  <td style="border: 1px solid black; padding: 5px">
                    <b>Identifier: </b>
                  </td>
                  <td style="border: 1px solid black; padding: 5px">
                    <a name="urn:uuid:0340b34d-205a-4b80-8f65-8662ba46e9f3">urn:uuid:0340b34d-205a-4b80-8f65-8662ba46e9f3</a>
                  </td>
                </tr>
                <tr>
                  <td style="border: 1px solid black; padding: 5px">
                    <b>Date: </b>
                  </td>
                  <td style="border: 1px solid black; padding: 5px">2025-03-19T13:30:57.757+01:00</td>
                </tr>
                <tr>
                  <td style="border: 1px solid black; padding: 5px">
                    <b>Content: </b>
                  </td>
                  <td style="border: 1px solid black; padding: 5px">Groot (image/tiff)</td>
                </tr>
              </table>
            </blockquote>
            <blockquote>
              <table style="border-collapse: collapse">
                <tr>
                  <td style="border: 1px solid black; padding: 5px">
                    <b>Identifier: </b>
                  </td>
                  <td style="border: 1px solid black; padding: 5px">
                    <a name="urn:uuid:2fc22ab5-d84d-4896-80a6-dd6630a7de69">urn:uuid:2fc22ab5-d84d-4896-80a6-dd6630a7de69</a>
                  </td>
                </tr>
                <tr>
                  <td style="border: 1px solid black; padding: 5px">
                    <b>Date: </b>
                  </td>
                  <td style="border: 1px solid black; padding: 5px">2024-09-07T06:00:00+02:00</td>
                </tr>
                <tr>
                  <td style="border: 1px solid black; padding: 5px">
                    <b>Author: </b>
                  </td>
                  <td style="border: 1px solid black; padding: 5px">
                    <a href="#PractitionerRole_2ae490e9-5de9-47b3-8258-b9fc2b578042">PractitionerRole/2ae490e9-5de9-47b3-8258-b9fc2b578042</a>
                  </td>
                </tr>
                <tr>
                  <td style="border: 1px solid black; padding: 5px">
                    <b>Contact: </b>
                  </td>
                  <td style="border: 1px solid black; padding: 5px">38683868</td>
                </tr>
                <tr>
                  <td style="border: 1px solid black; padding: 5px">
                    <b>Content: </b>
                  </td>
                  <td style="border: 1px solid black; padding: 5px">Til rette vedkommende hos 2100 Lægehuset Østerbro. Afdeling A har modtaget en henvisning patient. Forinden der foretages visitation, bedes følgende undersøgelser foretaget: Røntgen af hofte i to planer (Vedhæftet er seneste røntgen). Blodtryksresultat Sænkningsresultat  Resultaterne bedes fremsendt som et korrespondancebrev. Hilsen Kim Petersen 
 Overlæge</td>
                </tr>
              </table>
            </blockquote>
            <blockquote>
              <table style="border-collapse: collapse">
                <tr>
                  <td style="border: 1px solid black; padding: 5px">
                    <b>Identifier: </b>
                  </td>
                  <td style="border: 1px solid black; padding: 5px">
                    <a name="urn:uuid:5a44c168-2652-46c3-9120-dc468eadce7a">urn:uuid:5a44c168-2652-46c3-9120-dc468eadce7a</a>
                  </td>
                </tr>
                <tr>
                  <td style="border: 1px solid black; padding: 5px">
                    <b>Date: </b>
                  </td>
                  <td style="border: 1px solid black; padding: 5px">2024-09-07T06:00:00+02:00</td>
                </tr>
                <tr>
                  <td style="border: 1px solid black; padding: 5px">
                    <b>Content: </b>
                  </td>
                  <td style="border: 1px solid black; padding: 5px">Røntgen-hofter (image/png)</td>
                </tr>
              </table>
            </blockquote>
          </div>
        </text>
        <identifier>
          <value value="urn:uuid:cf2f559c-03e7-4f21-a39a-4be61ca15ae5" />
        </identifier>
        <status value="unknown" />
        <category>
          <coding>
            <system value="http://medcomfhir.dk/ig/terminology/CodeSystem/medcom-careCommunication-categoryCodes" />
            <code value="regarding-referral" />
          </coding>
        </category>
        <priority value="routine" />
        <subject>
          <reference value="Patient/d37db208-46b7-429b-9e03-99d029f79776" />
        </subject>
        <payload>
          <extension url="http://medcomfhir.dk/ig/core/StructureDefinition/medcom-core-datetime-extension">
            <valueDateTime value="2025-03-19T13:30:57.757+01:00" />
          </extension>
          <extension url="http://medcomfhir.dk/ig/core/StructureDefinition/medcom-core-identifier-extension">
            <valueIdentifier>
              <value value="urn:uuid:dc2b9108-1142-4831-9441-2752a8aff09f" />
              <assigner>
                <reference value="Organization/9b668ecc-a9e4-4bbb-968a-d27b9894a8c9" />
              </assigner>
            </valueIdentifier>
          </extension>
          <extension url="http://medcomfhir.dk/ig/core/StructureDefinition/medcom-core-practitioner-extension">
            <valueReference>
              <reference value="PractitionerRole/922afe12-2ed4-4ceb-8223-6be96a0785f4" />
            </valueReference>
          </extension>
          <extension url="http://medcomfhir.dk/ig/core/StructureDefinition/medcom-core-contact-extension">
            <valueContactPoint>
              <system value="phone" />
              <value value="75757575" />
            </valueContactPoint>
          </extension>
          <contentString value="svar med vedhæftninger" />
        </payload>
        <payload>
          <extension url="http://medcomfhir.dk/ig/core/StructureDefinition/medcom-core-datetime-extension">
            <valueDateTime value="2025-03-19T13:30:57.757+01:00" />
          </extension>
          <extension url="http://medcomfhir.dk/ig/core/StructureDefinition/medcom-core-identifier-extension">
            <valueIdentifier>
              <value value="urn:uuid:ee8e0cfb-e628-4b94-81c2-dc9308b5722f" />
              <assigner>
                <reference value="Organization/9b668ecc-a9e4-4bbb-968a-d27b9894a8c9" />
              </assigner>
            </valueIdentifier>
          </extension>
          <contentAttachment>
            <contentType value="image/bmp" />
            <data value="" />
            <title value="Groot" />
          </contentAttachment>
        </payload>
        <payload>
          <extension url="http://medcomfhir.dk/ig/core/StructureDefinition/medcom-core-datetime-extension">
            <valueDateTime value="2025-03-19T13:30:57.757+01:00" />
          </extension>
          <extension url="http://medcomfhir.dk/ig/core/StructureDefinition/medcom-core-identifier-extension">
            <valueIdentifier>
              <value value="urn:uuid:90b673c4-f602-40dd-a4b0-72dc8f27eac2" />
              <assigner>
                <reference value="Organization/9b668ecc-a9e4-4bbb-968a-d27b9894a8c9" />
              </assigner>
            </valueIdentifier>
          </extension>
          <contentAttachment>
            <contentType value="image/gif" />
            <data value="" />
            <title value="Groot" />
          </contentAttachment>
        </payload>
        <payload>
          <extension url="http://medcomfhir.dk/ig/core/StructureDefinition/medcom-core-datetime-extension">
            <valueDateTime value="2025-03-19T13:30:57.757+01:00" />
          </extension>
          <extension url="http://medcomfhir.dk/ig/core/StructureDefinition/medcom-core-identifier-extension">
            <valueIdentifier>
              <value value="urn:uuid:6be785de-8137-4c73-8f74-7d5b892b0031" />
              <assigner>
                <reference value="Organization/9b668ecc-a9e4-4bbb-968a-d27b9894a8c9" />
              </assigner>
            </valueIdentifier>
          </extension>
          <contentAttachment>
            <contentType value="image/jpeg" />
            <data value="" />
            <title value="Groot" />
          </contentAttachment>
        </payload>
        <payload>
          <extension url="http://medcomfhir.dk/ig/core/StructureDefinition/medcom-core-datetime-extension">
            <valueDateTime value="2025-03-19T13:30:57.757+01:00" />
          </extension>
          <extension url="http://medcomfhir.dk/ig/core/StructureDefinition/medcom-core-identifier-extension">
            <valueIdentifier>
              <value value="urn:uuid:0340b34d-205a-4b80-8f65-8662ba46e9f3" />
              <assigner>
                <reference value="Organization/9b668ecc-a9e4-4bbb-968a-d27b9894a8c9" />
              </assigner>
            </valueIdentifier>
          </extension>
          <contentAttachment>
            <contentType value="image/tiff" />
            <data value="" />
            <title value="Groot" />
          </contentAttachment>
        </payload>
        <payload>
          <extension url="http://medcomfhir.dk/ig/core/StructureDefinition/medcom-core-datetime-extension">
            <valueDateTime value="2024-09-07T06:00:00+02:00" />
          </extension>
          <extension url="http://medcomfhir.dk/ig/core/StructureDefinition/medcom-core-identifier-extension">
            <valueIdentifier>
              <value value="urn:uuid:2fc22ab5-d84d-4896-80a6-dd6630a7de69" />
              <assigner>
                <reference value="Organization/9b668ecc-a9e4-4bbb-968a-d27b9894a8c9" />
              </assigner>
            </valueIdentifier>
          </extension>
          <extension url="http://medcomfhir.dk/ig/core/StructureDefinition/medcom-core-practitioner-extension">
            <valueReference>
              <reference value="PractitionerRole/2ae490e9-5de9-47b3-8258-b9fc2b578042" />
            </valueReference>
          </extension>
          <extension url="http://medcomfhir.dk/ig/core/StructureDefinition/medcom-core-contact-extension">
            <valueContactPoint>
              <system value="phone" />
              <value value="38683868" />
            </valueContactPoint>
          </extension>
          <contentString value="Til rette vedkommende hos 2100 Lægehuset Østerbro. Afdeling A har modtaget en henvisning patient. Forinden der foretages visitation, bedes følgende undersøgelser foretaget: Røntgen af hofte i to planer (Vedhæftet er seneste røntgen). Blodtryksresultat Sænkningsresultat  Resultaterne bedes fremsendt som et korrespondancebrev. Hilsen Kim Petersen &#xA; Overlæge" />
        </payload>
        <payload>
          <extension url="http://medcomfhir.dk/ig/core/StructureDefinition/medcom-core-datetime-extension">
            <valueDateTime value="2024-09-07T06:00:00+02:00" />
          </extension>
          <extension url="http://medcomfhir.dk/ig/core/StructureDefinition/medcom-core-identifier-extension">
            <valueIdentifier>
              <value value="urn:uuid:5a44c168-2652-46c3-9120-dc468eadce7a" />
              <assigner>
                <reference value="Organization/9b668ecc-a9e4-4bbb-968a-d27b9894a8c9" />
              </assigner>
            </valueIdentifier>
          </extension>
          <contentAttachment>
            <contentType value="image/png" />
            <title value="Røntgen-hofter" />
          </contentAttachment>
        </payload>
      </Communication>
    </resource>
  </entry>
  <entry>
    <fullUrl value="https://eghealthcarefhir.dk/carecommunication/Organization/5559b731-171a-4f0c-8e61-23c54f1cdf6f" />
    <resource>
      <Organization>
        <id value="5559b731-171a-4f0c-8e61-23c54f1cdf6f" />
        <meta>
          <profile value="http://medcomfhir.dk/ig/messaging/StructureDefinition/medcom-messaging-organization" />
        </meta>
        <text>
          <status value="generated" />
          <div xmlns="http://www.w3.org/1999/xhtml">
            <p>
              <b>
                <a name="Organization_5559b731-171a-4f0c-8e61-23c54f1cdf6f">Generated Narrative: Organization</a>
              </b>
            </p>
            <div style="display: inline-block; background-color: #d9e0e7; padding: 6px; margin: 4px; border: 1px solid #8da1b4; border-radius: 5px; line-height: 60%">
              <p style="margin-top: 0px">Resource Organization "5559b731-171a-4f0c-8e61-23c54f1cdf6f"</p>
              <p style="margin-bottom: 0px">Profile: <a href="http://medcomfhir.dk/ig/messaging/StructureDefinition-medcom-messaging-organization.html">http://medcomfhir.dk/ig/messaging/StructureDefinition/medcom-messaging-organization</a></p>
            </div>
            <h3>Identifiers</h3>
            <table style="border-collapse: collapse">
              <tr>
                <td style="border: 1px solid black; padding: 5px">
                  <b>System</b>
                </td>
                <td style="border: 1px solid black; padding: 5px">
                  <b>Id</b>
                </td>
              </tr>
              <tr>
                <td style="border: 1px solid black; padding: 5px">https://www.gs1.org/gln</td>
                <td style="border: 1px solid black; padding: 5px">5790002408496</td>
              </tr>
              <tr>
                <td style="border: 1px solid black; padding: 5px">urn:oid:1.2.208.176.1.1</td>
                <td style="border: 1px solid black; padding: 5px">1017421000016003</td>
              </tr>
            </table>
            <p>
              <b>Name</b>: 2100 Lægehuset Østerbro</p>
          </div>
        </text>
        <identifier>
          <system value="https://www.gs1.org/gln" />
          <value value="5790002408496" />
        </identifier>
        <identifier>
          <system value="urn:oid:1.2.208.176.1.1" />
          <value value="1017421000016003" />
        </identifier>
        <name value="2100 Lægehuset Østerbro" />
      </Organization>
    </resource>
  </entry>
  <entry>
    <fullUrl value="https://eghealthcarefhir.dk/carecommunication/Organization/9b668ecc-a9e4-4bbb-968a-d27b9894a8c9" />
    <resource>
      <Organization>
        <id value="9b668ecc-a9e4-4bbb-968a-d27b9894a8c9" />
        <meta>
          <profile value="http://medcomfhir.dk/ig/messaging/StructureDefinition/medcom-messaging-organization" />
        </meta>
        <text>
          <status value="generated" />
          <div xmlns="http://www.w3.org/1999/xhtml">
            <p>
              <b>
                <a name="Organization_9b668ecc-a9e4-4bbb-968a-d27b9894a8c9">Generated Narrative: Organization</a>
              </b>
            </p>
            <div style="display: inline-block; background-color: #d9e0e7; padding: 6px; margin: 4px; border: 1px solid #8da1b4; border-radius: 5px; line-height: 60%">
              <p style="margin-top: 0px">Resource Organization "9b668ecc-a9e4-4bbb-968a-d27b9894a8c9"</p>
              <p style="margin-bottom: 0px">Profile: <a href="http://medcomfhir.dk/ig/messaging/StructureDefinition-medcom-messaging-organization.html">http://medcomfhir.dk/ig/messaging/StructureDefinition/medcom-messaging-organization</a></p>
            </div>
            <h3>Identifiers</h3>
            <table style="border-collapse: collapse">
              <tr>
                <td style="border: 1px solid black; padding: 5px">
                  <b>System</b>
                </td>
                <td style="border: 1px solid black; padding: 5px">
                  <b>Id</b>
                </td>
              </tr>
              <tr>
                <td style="border: 1px solid black; padding: 5px">https://www.gs1.org/gln</td>
                <td style="border: 1px solid black; padding: 5px">5790000120048</td>
              </tr>
              <tr>
                <td style="border: 1px solid black; padding: 5px">urn:oid:1.2.208.176.1.1</td>
                <td style="border: 1px solid black; padding: 5px">330461000016004</td>
              </tr>
            </table>
            <p>
              <b>Name</b>: Sundhedsplejen, Aabenraa kommune</p>
          </div>
        </text>
        <identifier>
          <system value="https://www.gs1.org/gln" />
          <value value="5790000120048" />
        </identifier>
        <identifier>
          <system value="urn:oid:1.2.208.176.1.1" />
          <value value="330461000016004" />
        </identifier>
        <name value="Sundhedsplejen, Aabenraa kommune" />
      </Organization>
    </resource>
  </entry>
  <entry>
    <fullUrl value="https://eghealthcarefhir.dk/carecommunication/Practitioner/637a6b7b-7463-486c-ae60-bedad5f33571" />
    <resource>
      <Practitioner>
        <id value="637a6b7b-7463-486c-ae60-bedad5f33571" />
        <meta>
          <profile value="http://medcomfhir.dk/ig/core/StructureDefinition/medcom-core-practitioner" />
        </meta>
        <text>
          <status value="generated" />
          <div xmlns="http://www.w3.org/1999/xhtml">
            <p>
              <b>
                <a name="Practitioner_637a6b7b-7463-486c-ae60-bedad5f33571">Generated Narrative: Practitioner</a>
              </b>
            </p>
            <div style="display: inline-block; background-color: #d9e0e7; padding: 6px; margin: 4px; border: 1px solid #8da1b4; border-radius: 5px; line-height: 60%">
              <p style="margin-top: 0px">Resource Practitioner "637a6b7b-7463-486c-ae60-bedad5f33571"</p>
              <p style="margin-bottom: 0px">Profile: <a href="http://medcomfhir.dk/ig/core/StructureDefinition-medcom-core-practitioner.html">http://medcomfhir.dk/ig/core/StructureDefinition/medcom-core-practitioner</a></p>
            </div>
            <p>
              <b>Name</b>: Mads Rasmussen</p>
          </div>
        </text>
        <name>
          <family value="Rasmussen" />
          <given value="Mads" />
        </name>
      </Practitioner>
    </resource>
  </entry>
  <entry>
    <fullUrl value="https://eghealthcarefhir.dk/carecommunication/PractitionerRole/922afe12-2ed4-4ceb-8223-6be96a0785f4" />
    <resource>
      <PractitionerRole>
        <id value="922afe12-2ed4-4ceb-8223-6be96a0785f4" />
        <meta>
          <profile value="http://medcomfhir.dk/ig/core/StructureDefinition/medcom-core-practitionerrole" />
        </meta>
        <text>
          <status value="generated" />
          <div xmlns="http://www.w3.org/1999/xhtml">
            <p>
              <b>
                <a name="PractitionerRole_922afe12-2ed4-4ceb-8223-6be96a0785f4">Generated Narrative: PractitionerRole</a>
              </b>
            </p>
            <div style="display: inline-block; background-color: #d9e0e7; padding: 6px; margin: 4px; border: 1px solid #8da1b4; border-radius: 5px; line-height: 60%">
              <p style="margin-top: 0px">Resource PractitionerRole "922afe12-2ed4-4ceb-8223-6be96a0785f4"</p>
              <p style="margin-bottom: 0px">Profile: <a href="http://medcomfhir.dk/ig/core/StructureDefinition-medcom-core-practitionerrole.html">http://medcomfhir.dk/ig/core/StructureDefinition/medcom-core-practitionerrole</a></p>
            </div>
            <p>
              <b>Practitioner</b>: <a href="#Practitioner_637a6b7b-7463-486c-ae60-bedad5f33571">Practitioner/637a6b7b-7463-486c-ae60-bedad5f33571</a></p>
            <p>
              <b>Organization</b>: <a href="#Organization_9b668ecc-a9e4-4bbb-968a-d27b9894a8c9">Organization/9b668ecc-a9e4-4bbb-968a-d27b9894a8c9</a></p>
            <p>
              <b>Role</b>: laege (<a href="http://medcomfhir.dk/ig/terminology/ValueSet-medcom-core-PractitionerRoles.html">MedComCorePractitionerRoles</a>)</p>
          </div>
        </text>
        <practitioner>
          <reference value="Practitioner/637a6b7b-7463-486c-ae60-bedad5f33571" />
        </practitioner>
        <organization>
          <reference value="Organization/9b668ecc-a9e4-4bbb-968a-d27b9894a8c9" />
        </organization>
        <code>
          <coding>
            <system value="http://medcomfhir.dk/ig/terminology/CodeSystem/medcom-core-PractitionerRolesAutorisationsregistret" />
            <code value="laege" />
          </coding>
        </code>
      </PractitionerRole>
    </resource>
  </entry>
  <entry>
    <fullUrl value="https://eghealthcarefhir.dk/carecommunication/Provenance/43bd50a8-c190-40ea-9d73-82bd0e5e7687" />
    <resource>
      <Provenance>
        <id value="43bd50a8-c190-40ea-9d73-82bd0e5e7687" />
        <meta>
          <profile value="http://medcomfhir.dk/ig/carecommunication/StructureDefinition/medcom-careCommunication-provenance" />
        </meta>
        <text>
          <status value="generated" />
          <div xmlns="http://www.w3.org/1999/xhtml">
            <p>
              <b>
                <a name="Provenance_43bd50a8-c190-40ea-9d73-82bd0e5e7687">Generated Narrative: Provenance</a>
              </b>
            </p>
            <div style="display: inline-block; background-color: #d9e0e7; padding: 6px; margin: 4px; border: 1px solid #8da1b4; border-radius: 5px; line-height: 60%">
              <p style="margin-top: 0px">Resource Provenance "43bd50a8-c190-40ea-9d73-82bd0e5e7687"</p>
              <p style="margin-bottom: 0px">Profile: <a href="http://medcomfhir.dk/ig/carecommunication/StructureDefinition-medcom-careCommunication-provenance.html">http://medcomfhir.dk/ig/carecommunication/StructureDefinition/medcom-careCommunication-provenance</a></p>
            </div>
            <p>
              <b>Target</b>: <a href="#MessageHeader_97782c80-742a-4d02-af6d-8f5d10273733">MessageHeader/97782c80-742a-4d02-af6d-8f5d10273733</a></p>
            <p>
              <b>Recorded</b>: 19-03-2025 13:30:57 +01:00</p>
            <p>
              <b>Activity</b>: reply-message (<a href="http://medcomfhir.dk/ig/terminology/ValueSet-medcom-messaging-activityCodes.html">MedComMessagingActivityCodes</a>)</p>
            <p>
              <b>Agent</b>: <a href="#Organization_9b668ecc-a9e4-4bbb-968a-d27b9894a8c9">Organization/9b668ecc-a9e4-4bbb-968a-d27b9894a8c9</a></p>
            <h3>Entities</h3>
            <table style="border-collapse: collapse">
              <tr>
                <td style="border: 1px solid black; padding: 5px">
                  <b>Role</b>
                </td>
                <td style="border: 1px solid black; padding: 5px">
                  <b>What</b>
                </td>
              </tr>
              <tr>
                <td style="border: 1px solid black; padding: 5px">Revision</td>
                <td style="border: 1px solid black; padding: 5px">
                  <a href="#MessageHeader_fdcda88f-b337-45dc-9b82-9650e982aa46">MessageHeader/fdcda88f-b337-45dc-9b82-9650e982aa46</a>
                </td>
              </tr>
              <tr>
                <td style="border: 1px solid black; padding: 5px">Source</td>
                <td style="border: 1px solid black; padding: 5px">
                  <a href="#urn:uuid:dc2b9108-1142-4831-9441-2752a8aff09f">urn:uuid:dc2b9108-1142-4831-9441-2752a8aff09f</a>
                </td>
              </tr>
              <tr>
                <td style="border: 1px solid black; padding: 5px">Source</td>
                <td style="border: 1px solid black; padding: 5px">
                  <a href="#urn:uuid:ee8e0cfb-e628-4b94-81c2-dc9308b5722f">urn:uuid:ee8e0cfb-e628-4b94-81c2-dc9308b5722f</a>
                </td>
              </tr>
              <tr>
                <td style="border: 1px solid black; padding: 5px">Source</td>
                <td style="border: 1px solid black; padding: 5px">
                  <a href="#urn:uuid:90b673c4-f602-40dd-a4b0-72dc8f27eac2">urn:uuid:90b673c4-f602-40dd-a4b0-72dc8f27eac2</a>
                </td>
              </tr>
              <tr>
                <td style="border: 1px solid black; padding: 5px">Source</td>
                <td style="border: 1px solid black; padding: 5px">
                  <a href="#urn:uuid:6be785de-8137-4c73-8f74-7d5b892b0031">urn:uuid:6be785de-8137-4c73-8f74-7d5b892b0031</a>
                </td>
              </tr>
              <tr>
                <td style="border: 1px solid black; padding: 5px">Source</td>
                <td style="border: 1px solid black; padding: 5px">
                  <a href="#urn:uuid:0340b34d-205a-4b80-8f65-8662ba46e9f3">urn:uuid:0340b34d-205a-4b80-8f65-8662ba46e9f3</a>
                </td>
              </tr>
            </table>
          </div>
        </text>
        <target>
          <reference value="MessageHeader/97782c80-742a-4d02-af6d-8f5d10273733" />
        </target>
        <occurredDateTime value="2025-03-19T13:30:57.757+01:00" />
        <recorded value="2025-03-19T13:30:57.757+01:00" />
        <activity>
          <coding>
            <system value="http://medcomfhir.dk/ig/terminology/CodeSystem/medcom-messaging-activityCodes" />
            <code value="reply-message" />
          </coding>
        </activity>
        <agent>
          <who>
            <reference value="Organization/9b668ecc-a9e4-4bbb-968a-d27b9894a8c9" />
          </who>
        </agent>
        <entity>
          <role value="revision" />
          <what>
            <reference value="MessageHeader/fdcda88f-b337-45dc-9b82-9650e982aa46" />
          </what>
        </entity>
        <entity>
          <role value="source" />
          <what>
            <identifier>
              <value value="urn:uuid:dc2b9108-1142-4831-9441-2752a8aff09f" />
            </identifier>
          </what>
        </entity>
        <entity>
          <role value="source" />
          <what>
            <identifier>
              <value value="urn:uuid:ee8e0cfb-e628-4b94-81c2-dc9308b5722f" />
            </identifier>
          </what>
        </entity>
        <entity>
          <role value="source" />
          <what>
            <identifier>
              <value value="urn:uuid:90b673c4-f602-40dd-a4b0-72dc8f27eac2" />
            </identifier>
          </what>
        </entity>
        <entity>
          <role value="source" />
          <what>
            <identifier>
              <value value="urn:uuid:6be785de-8137-4c73-8f74-7d5b892b0031" />
            </identifier>
          </what>
        </entity>
        <entity>
          <role value="source" />
          <what>
            <identifier>
              <value value="urn:uuid:0340b34d-205a-4b80-8f65-8662ba46e9f3" />
            </identifier>
          </what>
        </entity>
      </Provenance>
    </resource>
  </entry>
  <entry>
    <fullUrl value="https://eghealthcarefhir.dk/carecommunication/Practitioner/34bf2c09-4341-4326-9e73-7f49dcef3735" />
    <resource>
      <Practitioner>
        <id value="34bf2c09-4341-4326-9e73-7f49dcef3735" />
        <meta>
          <profile value="http://medcomfhir.dk/ig/core/StructureDefinition/medcom-core-practitioner" />
        </meta>
        <text>
          <status value="generated" />
          <div xmlns="http://www.w3.org/1999/xhtml">
            <p>
              <b>
                <a name="Practitioner_34bf2c09-4341-4326-9e73-7f49dcef3735">Generated Narrative: Practitioner</a>
              </b>
            </p>
            <div style="display: inline-block; background-color: #d9e0e7; padding: 6px; margin: 4px; border: 1px solid #8da1b4; border-radius: 5px; line-height: 60%">
              <p style="margin-top: 0px">Resource Practitioner "34bf2c09-4341-4326-9e73-7f49dcef3735"</p>
              <p style="margin-bottom: 0px">Profile: <a href="http://medcomfhir.dk/ig/core/StructureDefinition-medcom-core-practitioner.html">http://medcomfhir.dk/ig/core/StructureDefinition/medcom-core-practitioner</a></p>
            </div>
            <p>
              <b>Name</b>: Kim Petersen</p>
          </div>
        </text>
        <name>
          <family value="Petersen" />
          <given value="Kim" />
        </name>
      </Practitioner>
    </resource>
  </entry>
  <entry>
    <fullUrl value="https://eghealthcarefhir.dk/carecommunication/PractitionerRole/2ae490e9-5de9-47b3-8258-b9fc2b578042" />
    <resource>
      <PractitionerRole>
        <id value="2ae490e9-5de9-47b3-8258-b9fc2b578042" />
        <meta>
          <profile value="http://medcomfhir.dk/ig/core/StructureDefinition/medcom-core-practitionerrole" />
        </meta>
        <text>
          <status value="generated" />
          <div xmlns="http://www.w3.org/1999/xhtml">
            <p>
              <b>
                <a name="PractitionerRole_2ae490e9-5de9-47b3-8258-b9fc2b578042">Generated Narrative: PractitionerRole</a>
              </b>
            </p>
            <div style="display: inline-block; background-color: #d9e0e7; padding: 6px; margin: 4px; border: 1px solid #8da1b4; border-radius: 5px; line-height: 60%">
              <p style="margin-top: 0px">Resource PractitionerRole "2ae490e9-5de9-47b3-8258-b9fc2b578042"</p>
              <p style="margin-bottom: 0px">Profile: <a href="http://medcomfhir.dk/ig/core/StructureDefinition-medcom-core-practitionerrole.html">http://medcomfhir.dk/ig/core/StructureDefinition/medcom-core-practitionerrole</a></p>
            </div>
            <p>
              <b>Practitioner</b>: <a href="#Practitioner_34bf2c09-4341-4326-9e73-7f49dcef3735">Practitioner/34bf2c09-4341-4326-9e73-7f49dcef3735</a></p>
            <p>
              <b>Role</b>: overlaege (<a href="http://medcomfhir.dk/ig/terminology/ValueSet-medcom-core-PractitionerRoles.html">MedComCorePractitionerRoles</a>)</p>
          </div>
        </text>
        <practitioner>
          <reference value="Practitioner/34bf2c09-4341-4326-9e73-7f49dcef3735" />
        </practitioner>
        <code>
          <coding>
            <system value="http://medcomfhir.dk/ig/terminology/CodeSystem/medcom-core-PractitionerRolesSKSadministrativ" />
            <code value="overlaege" />
          </coding>
        </code>
      </PractitionerRole>
    </resource>
  </entry>
  <entry>
    <fullUrl value="https://eghealthcarefhir.dk/carecommunication/Provenance/935df1e8-894c-44ad-ba88-f47faa1aa504" />
    <resource>
      <Provenance>
        <id value="935df1e8-894c-44ad-ba88-f47faa1aa504" />
        <meta>
          <profile value="http://medcomfhir.dk/ig/carecommunication/StructureDefinition/medcom-careCommunication-provenance" />
        </meta>
        <text>
          <status value="generated" />
          <div xmlns="http://www.w3.org/1999/xhtml">
            <p>
              <b>
                <a name="Provenance_935df1e8-894c-44ad-ba88-f47faa1aa504">Generated Narrative: Provenance</a>
              </b>
            </p>
            <div style="display: inline-block; background-color: #d9e0e7; padding: 6px; margin: 4px; border: 1px solid #8da1b4; border-radius: 5px; line-height: 60%">
              <p style="margin-top: 0px">Resource Provenance "935df1e8-894c-44ad-ba88-f47faa1aa504"</p>
              <p style="margin-bottom: 0px">Profile: <a href="http://medcomfhir.dk/ig/carecommunication/StructureDefinition-medcom-careCommunication-provenance.html">http://medcomfhir.dk/ig/carecommunication/StructureDefinition/medcom-careCommunication-provenance</a></p>
            </div>
            <p>
              <b>Target</b>: <a href="#MessageHeader_fdcda88f-b337-45dc-9b82-9650e982aa46">MessageHeader/fdcda88f-b337-45dc-9b82-9650e982aa46</a></p>
            <p>
              <b>Recorded</b>: 07-09-2024 06:00:00 +02:00</p>
            <p>
              <b>Activity</b>: new-message (<a href="http://medcomfhir.dk/ig/terminology/ValueSet-medcom-messaging-activityCodes.html">MedComMessagingActivityCodes</a>)</p>
            <p>
              <b>Agent</b>: <a href="#Organization_9b668ecc-a9e4-4bbb-968a-d27b9894a8c9">Organization/9b668ecc-a9e4-4bbb-968a-d27b9894a8c9</a></p>
            <h3>Entities</h3>
            <table style="border-collapse: collapse">
              <tr>
                <td style="border: 1px solid black; padding: 5px">
                  <b>Role</b>
                </td>
                <td style="border: 1px solid black; padding: 5px">
                  <b>What</b>
                </td>
              </tr>
              <tr>
                <td style="border: 1px solid black; padding: 5px">Source</td>
                <td style="border: 1px solid black; padding: 5px">
                  <a href="#urn:uuid:2fc22ab5-d84d-4896-80a6-dd6630a7de69">urn:uuid:2fc22ab5-d84d-4896-80a6-dd6630a7de69</a>
                </td>
              </tr>
              <tr>
                <td style="border: 1px solid black; padding: 5px">Source</td>
                <td style="border: 1px solid black; padding: 5px">
                  <a href="#urn:uuid:5a44c168-2652-46c3-9120-dc468eadce7a">urn:uuid:5a44c168-2652-46c3-9120-dc468eadce7a</a>
                </td>
              </tr>
            </table>
          </div>
        </text>
        <target>
          <reference value="MessageHeader/fdcda88f-b337-45dc-9b82-9650e982aa46" />
        </target>
        <occurredDateTime value="2024-09-07T06:00:00+02:00" />
        <recorded value="2024-09-07T06:00:00+02:00" />
        <activity>
          <coding>
            <system value="http://medcomfhir.dk/ig/terminology/CodeSystem/medcom-messaging-activityCodes" />
            <code value="new-message" />
          </coding>
        </activity>
        <agent>
          <who>
            <reference value="Organization/9b668ecc-a9e4-4bbb-968a-d27b9894a8c9" />
          </who>
        </agent>
        <entity>
          <role value="source" />
          <what>
            <identifier>
              <value value="urn:uuid:2fc22ab5-d84d-4896-80a6-dd6630a7de69" />
            </identifier>
          </what>
        </entity>
        <entity>
          <role value="source" />
          <what>
            <identifier>
              <value value="urn:uuid:5a44c168-2652-46c3-9120-dc468eadce7a" />
            </identifier>
          </what>
        </entity>
      </Provenance>
    </resource>
  </entry>
</Bundle>