<?xml version="1.0" encoding="utf-8"?>
<Bundle xmlns="http://hl7.org/fhir">
  <id value="69da60be-d100-46e5-9e6b-4b79506e468a" />
  <meta>
    <profile value="http://medcomfhir.dk/ig/carecommunication/StructureDefinition/medcom-careCommunication-message" />
  </meta>
  <type value="message" />
  <timestamp value="2025-03-19T11:14:34.696+01:00" />
  <entry>
    <fullUrl value="https://eghealthcarefhir.dk/carecommunication/MessageHeader/e5f3ff45-160c-4e27-9cfe-98f3ae1ca11c" />
    <resource>
      <MessageHeader>
        <id value="e5f3ff45-160c-4e27-9cfe-98f3ae1ca11c" />
        <meta>
          <profile value="http://medcomfhir.dk/ig/carecommunication/StructureDefinition/medcom-careCommunication-messageHeader" />
        </meta>
        <text>
          <status value="generated" />
          <div xmlns="http://www.w3.org/1999/xhtml">
            <p>
              <b>
                <a name="MessageHeader_e5f3ff45-160c-4e27-9cfe-98f3ae1ca11c">Generated Narrative: MessageHeader</a>
              </b>
            </p>
            <div style="display: inline-block; background-color: #d9e0e7; padding: 6px; margin: 4px; border: 1px solid #8da1b4; border-radius: 5px; line-height: 60%">
              <p style="margin-top: 0px">Resource MessageHeader "e5f3ff45-160c-4e27-9cfe-98f3ae1ca11c"</p>
              <p style="margin-bottom: 0px">Profile: <a href="http://medcomfhir.dk/ig/carecommunication/StructureDefinition-medcom-careCommunication-messageHeader.html">http://medcomfhir.dk/ig/carecommunication/StructureDefinition/medcom-careCommunication-messageHeader</a></p>
            </div>
            <p>
              <b>Event</b>: care-communication-message (<a href="https://medcomfhir.dk/ig/terminology/ValueSet-medcom-messaging-messageTypes.html">MedComMessagingEventCodes</a>)</p>
            <p>
              <b>Definition</b>: <code>http://medcomfhir.dk/ig/carecommunication/medcom-careCommunication-message-definition|4.0.0</code></p>
            <h3>Destinations</h3>
            <table style="border-collapse: collapse">
              <tr>
                <td style="border: 1px solid black; padding: 5px">
                  <b>Endpoint</b>
                </td>
                <td style="border: 1px solid black; padding: 5px">
                  <b>Receiver</b>
                </td>
                <td style="border: 1px solid black; padding: 5px">
                  <b>Use</b>
                </td>
              </tr>
              <tr>
                <td style="border: 1px solid black; padding: 5px">
                  <a href="https://sor2.sum.dsdn.dk/#id=36211000016001">https://sor2.sum.dsdn.dk/#id=36211000016001</a>
                </td>
                <td style="border: 1px solid black; padding: 5px">
                  <a href="#Organization_727ef3e6-0856-474e-94b3-451bf0aeeb95">Organization/727ef3e6-0856-474e-94b3-451bf0aeeb95</a>
                </td>
                <td style="border: 1px solid black; padding: 5px">primary (<a href="https://medcomfhir.dk/ig/terminology/CodeSystem-medcom-messaging-destinationUse.html">MedComMessagingDestinationUse</a>)</td>
              </tr>
            </table>
            <h3>Source</h3>
            <table style="border-collapse: collapse">
              <tr>
                <td style="border: 1px solid black; padding: 5px">
                  <b>Endpoint</b>
                </td>
                <td style="border: 1px solid black; padding: 5px">
                  <b>Sender</b>
                </td>
              </tr>
              <tr>
                <td style="border: 1px solid black; padding: 5px">
                  <a href="https://sor2.sum.dsdn.dk/#id=330461000016004">https://sor2.sum.dsdn.dk/#id=330461000016004</a>
                </td>
                <td style="border: 1px solid black; padding: 5px">
                  <a href="#Organization_bba44675-f733-4765-bfb4-6eb43a03d5b2">Organization/bba44675-f733-4765-bfb4-6eb43a03d5b2</a>
                </td>
              </tr>
            </table>
            <p>
              <b>Focus</b>: <a href="#Communication_39f03580-16a5-4741-80a8-d6e7139a3620">Communication/39f03580-16a5-4741-80a8-d6e7139a3620</a></p>
          </div>
        </text>
        <eventCoding>
          <system value="http://medcomfhir.dk/ig/terminology/CodeSystem/medcom-messaging-eventCodes" />
          <code value="care-communication-message" />
        </eventCoding>
        <destination>
          <extension url="http://medcomfhir.dk/ig/messaging/StructureDefinition/medcom-messaging-destinationUseExtension">
            <valueCoding>
              <system value="http://medcomfhir.dk/ig/terminology/CodeSystem/medcom-messaging-destinationUse" />
              <code value="primary" />
            </valueCoding>
          </extension>
          <endpoint value="https://sor2.sum.dsdn.dk/#id=36211000016001" />
          <receiver>
            <reference value="Organization/727ef3e6-0856-474e-94b3-451bf0aeeb95" />
          </receiver>
        </destination>
        <sender>
          <reference value="Organization/bba44675-f733-4765-bfb4-6eb43a03d5b2" />
        </sender>
        <source>
          <endpoint value="https://sor2.sum.dsdn.dk/#id=330461000016004" />
        </source>
        <focus>
          <reference value="Communication/39f03580-16a5-4741-80a8-d6e7139a3620" />
        </focus>
        <definition value="http://medcomfhir.dk/ig/carecommunication/medcom-careCommunication-message-definition|4.0.0" />
      </MessageHeader>
    </resource>
  </entry>
  <entry>
    <fullUrl value="https://eghealthcarefhir.dk/carecommunication/Patient/18b4d1af-6f06-4b08-8174-4e8c9161d21e" />
    <resource>
      <Patient>
        <id value="18b4d1af-6f06-4b08-8174-4e8c9161d21e" />
        <meta>
          <profile value="http://medcomfhir.dk/ig/core/StructureDefinition/medcom-core-patient" />
        </meta>
        <text>
          <status value="generated" />
          <div xmlns="http://www.w3.org/1999/xhtml">
            <p>
              <b>
                <a name="Patient_18b4d1af-6f06-4b08-8174-4e8c9161d21e">Generated Narrative: Patient</a>
              </b>
            </p>
            <div style="display: inline-block; background-color: #d9e0e7; padding: 6px; margin: 4px; border: 1px solid #8da1b4; border-radius: 5px; line-height: 60%">
              <p style="margin-top: 0px">Resource Patient "18b4d1af-6f06-4b08-8174-4e8c9161d21e"</p>
              <p style="margin-bottom: 0px">Profile: <a href="http://medcomfhir.dk/ig/core/StructureDefinition-medcom-core-patient.html">http://medcomfhir.dk/ig/core/StructureDefinition/medcom-core-patient</a></p>
            </div>
            <h3>Identifiers</h3>
            <table style="border-collapse: collapse">
              <tr>
                <td style="border: 1px solid black; padding: 5px">
                  <b>System</b>
                </td>
                <td style="border: 1px solid black; padding: 5px">
                  <b>Id</b>
                </td>
              </tr>
              <tr>
                <td style="border: 1px solid black; padding: 5px">urn:oid:1.2.208.176.1.2</td>
                <td style="border: 1px solid black; padding: 5px">0201609995</td>
              </tr>
            </table>
            <p>
              <b>Name</b>: Einer Test Lauridsen</p>
            <p>
              <b>Address</b>: Testgrusgraven 185, 3400 Hillerød</p>
          </div>
        </text>
        <identifier>
          <system value="urn:oid:1.2.208.176.1.2" />
          <value value="0201609995" />
        </identifier>
        <name>
          <use value="official" />
          <family value="Lauridsen" />
          <given value="Einer Test" />
        </name>
        <telecom>
          <system value="phone" />
          <value value="12345678" />
          <use value="mobile" />
        </telecom>
        <telecom>
          <system value="email" />
          <value value="test@testpatient.dk" />
        </telecom>
        <address>
          <line value="Testgrusgraven 185" />
          <city value="Hillerød" />
          <postalCode value="3400" />
        </address>
      </Patient>
    </resource>
  </entry>
  <entry>
    <fullUrl value="https://eghealthcarefhir.dk/carecommunication/Communication/39f03580-16a5-4741-80a8-d6e7139a3620" />
    <resource>
      <Communication>
        <id value="39f03580-16a5-4741-80a8-d6e7139a3620" />
        <meta>
          <profile value="http://medcomfhir.dk/ig/carecommunication/StructureDefinition/medcom-careCommunication-communication" />
        </meta>
        <text>
          <status value="generated" />
          <div xmlns="http://www.w3.org/1999/xhtml">
            <p>
              <b>
                <a name="Communication_39f03580-16a5-4741-80a8-d6e7139a3620">Generated Narrative: Communication</a>
              </b>
            </p>
            <div style="display: inline-block; background-color: #d9e0e7; padding: 6px; margin: 4px; border: 1px solid #8da1b4; border-radius: 5px; line-height: 60%">
              <p style="margin-top: 0px">Resource Communication "39f03580-16a5-4741-80a8-d6e7139a3620"</p>
              <p style="margin-bottom: 0px">Profile: <a href="http://medcomfhir.dk/ig/carecommunication/StructureDefinition-medcom-careCommunication-communication.html">http://medcomfhir.dk/ig/carecommunication/StructureDefinition/medcom-careCommunication-communication</a></p>
            </div>
            <p>
              <b>Identifier</b>: urn:uuid:5bc0fd5a-9bd0-45af-9335-75c572e121db</p>
            <p>
              <b>Status</b>: Unknown</p>
            <p>
              <b>Category</b>: medicine (<a href="https://medcomfhir.dk/ig/terminology/ValueSet-medcom-careCommunication-categories.html">MedComCareCommunicationCategories</a>)</p>
            <p>
              <b>Subject</b>: <a href="#Patient_18b4d1af-6f06-4b08-8174-4e8c9161d21e">Patient/18b4d1af-6f06-4b08-8174-4e8c9161d21e</a></p>
            <h3>Payloads</h3>
            <blockquote>
              <table style="border-collapse: collapse">
                <tr>
                  <td style="border: 1px solid black; padding: 5px">
                    <b>Identifier: </b>
                  </td>
                  <td style="border: 1px solid black; padding: 5px">
                    <a name="urn:uuid:c3bb9bef-fe0d-4f1a-bd3f-a634cc2bee8f">urn:uuid:c3bb9bef-fe0d-4f1a-bd3f-a634cc2bee8f</a>
                  </td>
                </tr>
                <tr>
                  <td style="border: 1px solid black; padding: 5px">
                    <b>Date: </b>
                  </td>
                  <td style="border: 1px solid black; padding: 5px">2025-03-19T11:14:34.696+01:00</td>
                </tr>
                <tr>
                  <td style="border: 1px solid black; padding: 5px">
                    <b>Author: </b>
                  </td>
                  <td style="border: 1px solid black; padding: 5px">
                    <a href="#PractitionerRole_32b29b69-fc19-4d7e-9ac5-1f80aff2f007">PractitionerRole/32b29b69-fc19-4d7e-9ac5-1f80aff2f007</a>
                  </td>
                </tr>
                <tr>
                  <td style="border: 1px solid black; padding: 5px">
                    <b>Contact: </b>
                  </td>
                  <td style="border: 1px solid black; padding: 5px">75757575</td>
                </tr>
                <tr>
                  <td style="border: 1px solid black; padding: 5px">
                    <b>Content: </b>
                  </td>
                  <td style="border: 1px solid black; padding: 5px">med vedhæftning</td>
                </tr>
              </table>
            </blockquote>
            <blockquote>
              <table style="border-collapse: collapse">
                <tr>
                  <td style="border: 1px solid black; padding: 5px">
                    <b>Identifier: </b>
                  </td>
                  <td style="border: 1px solid black; padding: 5px">
                    <a name="urn:uuid:3794a999-f7a5-4288-b1ea-018a651b1ec1">urn:uuid:3794a999-f7a5-4288-b1ea-018a651b1ec1</a>
                  </td>
                </tr>
                <tr>
                  <td style="border: 1px solid black; padding: 5px">
                    <b>Date: </b>
                  </td>
                  <td style="border: 1px solid black; padding: 5px">2025-03-19T11:14:34.696+01:00</td>
                </tr>
                <tr>
                  <td style="border: 1px solid black; padding: 5px">
                    <b>Content: </b>
                  </td>
                  <td style="border: 1px solid black; padding: 5px">TAP-2000_datacommunication_protocoll (application/pdf)</td>
                </tr>
              </table>
            </blockquote>
          </div>
        </text>
        <identifier>
          <value value="urn:uuid:5bc0fd5a-9bd0-45af-9335-75c572e121db" />
        </identifier>
        <status value="unknown" />
        <category>
          <coding>
            <system value="http://medcomfhir.dk/ig/terminology/CodeSystem/medcom-careCommunication-categoryCodes" />
            <code value="medicine" />
          </coding>
        </category>
        <subject>
          <reference value="Patient/18b4d1af-6f06-4b08-8174-4e8c9161d21e" />
        </subject>
        <payload>
          <extension url="http://medcomfhir.dk/ig/core/StructureDefinition/medcom-core-datetime-extension">
            <valueDateTime value="2025-03-19T11:14:34.696+01:00" />
          </extension>
          <extension url="http://medcomfhir.dk/ig/core/StructureDefinition/medcom-core-identifier-extension">
            <valueIdentifier>
              <value value="urn:uuid:c3bb9bef-fe0d-4f1a-bd3f-a634cc2bee8f" />
              <assigner>
                <reference value="Organization/bba44675-f733-4765-bfb4-6eb43a03d5b2" />
              </assigner>
            </valueIdentifier>
          </extension>
          <extension url="http://medcomfhir.dk/ig/core/StructureDefinition/medcom-core-practitioner-extension">
            <valueReference>
              <reference value="PractitionerRole/32b29b69-fc19-4d7e-9ac5-1f80aff2f007" />
            </valueReference>
          </extension>
          <extension url="http://medcomfhir.dk/ig/core/StructureDefinition/medcom-core-contact-extension">
            <valueContactPoint>
              <system value="phone" />
              <value value="75757575" />
            </valueContactPoint>
          </extension>
          <contentString value="med vedhæftning" />
        </payload>
        <payload>
          <extension url="http://medcomfhir.dk/ig/core/StructureDefinition/medcom-core-datetime-extension">
            <valueDateTime value="2025-03-19T11:14:34.696+01:00" />
          </extension>
          <extension url="http://medcomfhir.dk/ig/core/StructureDefinition/medcom-core-identifier-extension">
            <valueIdentifier>
              <value value="urn:uuid:3794a999-f7a5-4288-b1ea-018a651b1ec1" />
              <assigner>
                <reference value="Organization/bba44675-f733-4765-bfb4-6eb43a03d5b2" />
              </assigner>
            </valueIdentifier>
          </extension>
          <contentAttachment>
            <contentType value="application/pdf" />
            <data value="" />
            <title value="TAP-2000_datacommunication_protocoll" />
          </contentAttachment>
        </payload>
      </Communication>
    </resource>
  </entry>
  <entry>
    <fullUrl value="https://eghealthcarefhir.dk/carecommunication/Organization/727ef3e6-0856-474e-94b3-451bf0aeeb95" />
    <resource>
      <Organization>
        <id value="727ef3e6-0856-474e-94b3-451bf0aeeb95" />
        <meta>
          <profile value="http://medcomfhir.dk/ig/messaging/StructureDefinition/medcom-messaging-organization" />
        </meta>
        <text>
          <status value="generated" />
          <div xmlns="http://www.w3.org/1999/xhtml">
            <p>
              <b>
                <a name="Organization_727ef3e6-0856-474e-94b3-451bf0aeeb95">Generated Narrative: Organization</a>
              </b>
            </p>
            <div style="display: inline-block; background-color: #d9e0e7; padding: 6px; margin: 4px; border: 1px solid #8da1b4; border-radius: 5px; line-height: 60%">
              <p style="margin-top: 0px">Resource Organization "727ef3e6-0856-474e-94b3-451bf0aeeb95"</p>
              <p style="margin-bottom: 0px">Profile: <a href="http://medcomfhir.dk/ig/messaging/StructureDefinition-medcom-messaging-organization.html">http://medcomfhir.dk/ig/messaging/StructureDefinition/medcom-messaging-organization</a></p>
            </div>
            <h3>Identifiers</h3>
            <table style="border-collapse: collapse">
              <tr>
                <td style="border: 1px solid black; padding: 5px">
                  <b>System</b>
                </td>
                <td style="border: 1px solid black; padding: 5px">
                  <b>Id</b>
                </td>
              </tr>
              <tr>
                <td style="border: 1px solid black; padding: 5px">https://www.gs1.org/gln</td>
                <td style="border: 1px solid black; padding: 5px">5790000131846</td>
              </tr>
              <tr>
                <td style="border: 1px solid black; padding: 5px">urn:oid:1.2.208.176.1.1</td>
                <td style="border: 1px solid black; padding: 5px">36211000016001</td>
              </tr>
            </table>
            <p>
              <b>Name</b>: Lægerne Lundevej, Ulrik Nyholm</p>
          </div>
        </text>
        <identifier>
          <system value="https://www.gs1.org/gln" />
          <value value="5790000131846" />
        </identifier>
        <identifier>
          <system value="urn:oid:1.2.208.176.1.1" />
          <value value="36211000016001" />
        </identifier>
        <name value="Lægerne Lundevej, Ulrik Nyholm" />
      </Organization>
    </resource>
  </entry>
  <entry>
    <fullUrl value="https://eghealthcarefhir.dk/carecommunication/Organization/bba44675-f733-4765-bfb4-6eb43a03d5b2" />
    <resource>
      <Organization>
        <id value="bba44675-f733-4765-bfb4-6eb43a03d5b2" />
        <meta>
          <profile value="http://medcomfhir.dk/ig/messaging/StructureDefinition/medcom-messaging-organization" />
        </meta>
        <text>
          <status value="generated" />
          <div xmlns="http://www.w3.org/1999/xhtml">
            <p>
              <b>
                <a name="Organization_bba44675-f733-4765-bfb4-6eb43a03d5b2">Generated Narrative: Organization</a>
              </b>
            </p>
            <div style="display: inline-block; background-color: #d9e0e7; padding: 6px; margin: 4px; border: 1px solid #8da1b4; border-radius: 5px; line-height: 60%">
              <p style="margin-top: 0px">Resource Organization "bba44675-f733-4765-bfb4-6eb43a03d5b2"</p>
              <p style="margin-bottom: 0px">Profile: <a href="http://medcomfhir.dk/ig/messaging/StructureDefinition-medcom-messaging-organization.html">http://medcomfhir.dk/ig/messaging/StructureDefinition/medcom-messaging-organization</a></p>
            </div>
            <h3>Identifiers</h3>
            <table style="border-collapse: collapse">
              <tr>
                <td style="border: 1px solid black; padding: 5px">
                  <b>System</b>
                </td>
                <td style="border: 1px solid black; padding: 5px">
                  <b>Id</b>
                </td>
              </tr>
              <tr>
                <td style="border: 1px solid black; padding: 5px">https://www.gs1.org/gln</td>
                <td style="border: 1px solid black; padding: 5px">5790000120048</td>
              </tr>
              <tr>
                <td style="border: 1px solid black; padding: 5px">urn:oid:1.2.208.176.1.1</td>
                <td style="border: 1px solid black; padding: 5px">330461000016004</td>
              </tr>
            </table>
            <p>
              <b>Name</b>: 1 MAEJO Test Klinik 1</p>
          </div>
        </text>
        <identifier>
          <system value="https://www.gs1.org/gln" />
          <value value="5790000120048" />
        </identifier>
        <identifier>
          <system value="urn:oid:1.2.208.176.1.1" />
          <value value="330461000016004" />
        </identifier>
        <name value="1 MAEJO Test Klinik 1" />
      </Organization>
    </resource>
  </entry>
  <entry>
    <fullUrl value="https://eghealthcarefhir.dk/carecommunication/Practitioner/f5e73943-8246-4c51-8c8e-6f7d2f1753bc" />
    <resource>
      <Practitioner>
        <id value="f5e73943-8246-4c51-8c8e-6f7d2f1753bc" />
        <meta>
          <profile value="http://medcomfhir.dk/ig/core/StructureDefinition/medcom-core-practitioner" />
        </meta>
        <text>
          <status value="generated" />
          <div xmlns="http://www.w3.org/1999/xhtml">
            <p>
              <b>
                <a name="Practitioner_f5e73943-8246-4c51-8c8e-6f7d2f1753bc">Generated Narrative: Practitioner</a>
              </b>
            </p>
            <div style="display: inline-block; background-color: #d9e0e7; padding: 6px; margin: 4px; border: 1px solid #8da1b4; border-radius: 5px; line-height: 60%">
              <p style="margin-top: 0px">Resource Practitioner "f5e73943-8246-4c51-8c8e-6f7d2f1753bc"</p>
              <p style="margin-bottom: 0px">Profile: <a href="http://medcomfhir.dk/ig/core/StructureDefinition-medcom-core-practitioner.html">http://medcomfhir.dk/ig/core/StructureDefinition/medcom-core-practitioner</a></p>
            </div>
            <p>
              <b>Name</b>: Mads Rasmussen</p>
          </div>
        </text>
        <name>
          <family value="Rasmussen" />
          <given value="Mads" />
        </name>
      </Practitioner>
    </resource>
  </entry>
  <entry>
    <fullUrl value="https://eghealthcarefhir.dk/carecommunication/PractitionerRole/32b29b69-fc19-4d7e-9ac5-1f80aff2f007" />
    <resource>
      <PractitionerRole>
        <id value="32b29b69-fc19-4d7e-9ac5-1f80aff2f007" />
        <meta>
          <profile value="http://medcomfhir.dk/ig/core/StructureDefinition/medcom-core-practitionerrole" />
        </meta>
        <text>
          <status value="generated" />
          <div xmlns="http://www.w3.org/1999/xhtml">
            <p>
              <b>
                <a name="PractitionerRole_32b29b69-fc19-4d7e-9ac5-1f80aff2f007">Generated Narrative: PractitionerRole</a>
              </b>
            </p>
            <div style="display: inline-block; background-color: #d9e0e7; padding: 6px; margin: 4px; border: 1px solid #8da1b4; border-radius: 5px; line-height: 60%">
              <p style="margin-top: 0px">Resource PractitionerRole "32b29b69-fc19-4d7e-9ac5-1f80aff2f007"</p>
              <p style="margin-bottom: 0px">Profile: <a href="http://medcomfhir.dk/ig/core/StructureDefinition-medcom-core-practitionerrole.html">http://medcomfhir.dk/ig/core/StructureDefinition/medcom-core-practitionerrole</a></p>
            </div>
            <p>
              <b>Practitioner</b>: <a href="#Practitioner_f5e73943-8246-4c51-8c8e-6f7d2f1753bc">Practitioner/f5e73943-8246-4c51-8c8e-6f7d2f1753bc</a></p>
            <p>
              <b>Organization</b>: <a href="#Organization_bba44675-f733-4765-bfb4-6eb43a03d5b2">Organization/bba44675-f733-4765-bfb4-6eb43a03d5b2</a></p>
            <p>
              <b>Role</b>: laege (<a href="http://medcomfhir.dk/ig/terminology/ValueSet-medcom-core-PractitionerRoles.html">MedComCorePractitionerRoles</a>)</p>
          </div>
        </text>
        <practitioner>
          <reference value="Practitioner/f5e73943-8246-4c51-8c8e-6f7d2f1753bc" />
        </practitioner>
        <organization>
          <reference value="Organization/bba44675-f733-4765-bfb4-6eb43a03d5b2" />
        </organization>
        <code>
          <coding>
            <system value="http://medcomfhir.dk/ig/terminology/CodeSystem/medcom-core-PractitionerRolesAutorisationsregistret" />
            <code value="laege" />
          </coding>
        </code>
      </PractitionerRole>
    </resource>
  </entry>
  <entry>
    <fullUrl value="https://eghealthcarefhir.dk/carecommunication/Provenance/4008f7ad-e2cb-45da-83c1-36d640831a19" />
    <resource>
      <Provenance>
        <id value="4008f7ad-e2cb-45da-83c1-36d640831a19" />
        <meta>
          <profile value="http://medcomfhir.dk/ig/carecommunication/StructureDefinition/medcom-careCommunication-provenance" />
        </meta>
        <text>
          <status value="generated" />
          <div xmlns="http://www.w3.org/1999/xhtml">
            <p>
              <b>
                <a name="Provenance_4008f7ad-e2cb-45da-83c1-36d640831a19">Generated Narrative: Provenance</a>
              </b>
            </p>
            <div style="display: inline-block; background-color: #d9e0e7; padding: 6px; margin: 4px; border: 1px solid #8da1b4; border-radius: 5px; line-height: 60%">
              <p style="margin-top: 0px">Resource Provenance "4008f7ad-e2cb-45da-83c1-36d640831a19"</p>
              <p style="margin-bottom: 0px">Profile: <a href="http://medcomfhir.dk/ig/carecommunication/StructureDefinition-medcom-careCommunication-provenance.html">http://medcomfhir.dk/ig/carecommunication/StructureDefinition/medcom-careCommunication-provenance</a></p>
            </div>
            <p>
              <b>Target</b>: <a href="#MessageHeader_e5f3ff45-160c-4e27-9cfe-98f3ae1ca11c">MessageHeader/e5f3ff45-160c-4e27-9cfe-98f3ae1ca11c</a></p>
            <p>
              <b>Recorded</b>: 19-03-2025 11:14:34 +01:00</p>
            <p>
              <b>Activity</b>: new-message (<a href="http://medcomfhir.dk/ig/terminology/ValueSet-medcom-messaging-activityCodes.html">MedComMessagingActivityCodes</a>)</p>
            <p>
              <b>Agent</b>: <a href="#Organization_bba44675-f733-4765-bfb4-6eb43a03d5b2">Organization/bba44675-f733-4765-bfb4-6eb43a03d5b2</a></p>
            <h3>Entities</h3>
            <table style="border-collapse: collapse">
              <tr>
                <td style="border: 1px solid black; padding: 5px">
                  <b>Role</b>
                </td>
                <td style="border: 1px solid black; padding: 5px">
                  <b>What</b>
                </td>
              </tr>
              <tr>
                <td style="border: 1px solid black; padding: 5px">Source</td>
                <td style="border: 1px solid black; padding: 5px">
                  <a href="#urn:uuid:c3bb9bef-fe0d-4f1a-bd3f-a634cc2bee8f">urn:uuid:c3bb9bef-fe0d-4f1a-bd3f-a634cc2bee8f</a>
                </td>
              </tr>
              <tr>
                <td style="border: 1px solid black; padding: 5px">Source</td>
                <td style="border: 1px solid black; padding: 5px">
                  <a href="#urn:uuid:3794a999-f7a5-4288-b1ea-018a651b1ec1">urn:uuid:3794a999-f7a5-4288-b1ea-018a651b1ec1</a>
                </td>
              </tr>
            </table>
          </div>
        </text>
        <target>
          <reference value="MessageHeader/e5f3ff45-160c-4e27-9cfe-98f3ae1ca11c" />
        </target>
        <occurredDateTime value="2025-03-19T11:14:34.696+01:00" />
        <recorded value="2025-03-19T11:14:34.696+01:00" />
        <activity>
          <coding>
            <system value="http://medcomfhir.dk/ig/terminology/CodeSystem/medcom-messaging-activityCodes" />
            <code value="new-message" />
          </coding>
        </activity>
        <agent>
          <who>
            <reference value="Organization/bba44675-f733-4765-bfb4-6eb43a03d5b2" />
          </who>
        </agent>
        <entity>
          <role value="source" />
          <what>
            <identifier>
              <value value="urn:uuid:c3bb9bef-fe0d-4f1a-bd3f-a634cc2bee8f" />
            </identifier>
          </what>
        </entity>
        <entity>
          <role value="source" />
          <what>
            <identifier>
              <value value="urn:uuid:3794a999-f7a5-4288-b1ea-018a651b1ec1" />
            </identifier>
          </what>
        </entity>
      </Provenance>
    </resource>
  </entry>
</Bundle>