{
  "resourceType": "Bundle",
  "id": "2d9504a9-e695-4dc0-91c1-14c7240aa37f",
  "meta": {
    "profile": [
      "http://medcomfhir.dk/ig/carecommunication/StructureDefinition/medcom-careCommunication-message"
    ]
  },
  "type": "message",
  "timestamp": "2025-03-26T09:18:13.225674842Z",
  "entry": [
    {
      "fullUrl": "https://fhir.vena.dk/MessageHeader/6365e226-c99d-4b08-a10f-245fb4b661f1",
      "resource": {
        "resourceType": "MessageHeader",
        "id": "6365e226-c99d-4b08-a10f-245fb4b661f1",
        "meta": {
          "profile": [
            "http://medcomfhir.dk/ig/carecommunication/StructureDefinition/medcom-careCommunication-messageHeader"
          ]
        },
        "text": {
          "status": "generated",
          "div": "\u003cdiv xmlns=\"http://www.w3.org/1999/xhtml\"\u003e\n    \u003ca name=\"MessageHeader_6365e226-c99d-4b08-a10f-245fb4b661f1\"\u003e \u003c/a\u003e\n    \u003cp class=\"res-header-id\"\u003e\u003cb\u003eGenerated Narrative: MessageHeader 6365e226-c99d-4b08-a10f-245fb4b661f1\u003c/b\u003e\u003c/p\u003e\n    \u003ca name=\"6365e226-c99d-4b08-a10f-245fb4b661f1\"\u003e \u003c/a\u003e\n    \u003ca name=\"hc6365e226-c99d-4b08-a10f-245fb4b661f1\"\u003e \u003c/a\u003e\n    \u003ca name=\"6365e226-c99d-4b08-a10f-245fb4b661f1-da-DK\"\u003e \u003c/a\u003e\n    \u003cp\u003e\u003cb\u003eevent\u003c/b\u003e: \u003ca href=\"http://medcomfhir.dk/ig/terminology/CodeSystem/medcom-messaging-eventCodes.html#http%3a%2f%2fmedcomfhir.dk%2fig%2fterminology%2fCodeSystem%2fmedcom-messaging-eventCodes-care-communication-message\"\u003eMedComMessagingEventCodes care-communication-message\u003c/a\u003e: Care Communication Message\u003c/p\u003e\n    \n    \u003ch3\u003eDestinations\u003c/h3\u003e\n    \u003ctable class=\"grid\"\u003e\n        \u003ctr\u003e\u003ctd style=\"display: none\"\u003e-\u003c/td\u003e\u003ctd\u003e\u003cb\u003eExtension\u003c/b\u003e\u003c/td\u003e\u003ctd\u003e\u003cb\u003eEndpoint\u003c/b\u003e\u003c/td\u003e\u003ctd\u003e\u003cb\u003eReceiver\u003c/b\u003e\u003c/td\u003e\u003c/tr\u003e\n        \n        \u003ctr\u003e\n            \u003ctd style=\"display: none\"\u003e*\u003c/td\u003e\n            \u003ctd\u003e\u003c/td\u003e\n            \u003ctd\u003e\u003ca href=\"https://sor2.sum.dsdn.dk/#id=330461000016004\"\u003ehttps://sor2.sum.dsdn.dk/#id=330461000016004\u003c/a\u003e\u003c/td\u003e\n            \u003ctd\u003e\u003ca href=\"a9fd739b-d1a7-4e5c-9387-c77d75bcb1da.html\"\u003eSundhedsplejen, Aabenraa kommune\u003c/a\u003e\u003c/td\u003e\n        \u003c/tr\u003e\n        \n    \u003c/table\u003e\n    \n    \u003cp\u003e\u003cb\u003esender\u003c/b\u003e: \u003ca href=\"541c6cec-a3d8-4577-9a35-72b08e3e8908.html\"\u003eVena - til testbrug\u003c/a\u003e\u003c/p\u003e\n    \n    \u003ch3\u003eSources\u003c/h3\u003e\n    \u003ctable class=\"grid\"\u003e\n        \u003ctr\u003e\u003ctd style=\"display: none\"\u003e-\u003c/td\u003e\u003ctd\u003e\u003cb\u003eEndpoint\u003c/b\u003e\u003c/td\u003e\u003c/tr\u003e\n        \u003ctr\u003e\n            \u003ctd style=\"display: none\"\u003e*\u003c/td\u003e\n            \u003ctd\u003e\u003ca href=\"https://sor2.sum.dsdn.dk/#id=1419241000016005\"\u003ehttps://sor2.sum.dsdn.dk/#id=1419241000016005\u003c/a\u003e\u003c/td\u003e\n        \u003c/tr\u003e\n    \u003c/table\u003e\n    \n    \u003cp\u003e\u003cb\u003efocus\u003c/b\u003e: \u003ca href=\"802c035c-6476-4c82-acf8-261bc44226c2.html\"\u003eCommunication: identifier = urn:uuid:17e33e7f-c229-4dbe-942c-97194149f8e7; status = unknown; category = [Undersøgelsessvar]; topic = {}\u003c/a\u003e\u003c/p\u003e\n    \u003cp\u003e\u003cb\u003edefinition\u003c/b\u003e: \u003ccode\u003ehttp://medcomfhir.dk/ig/carecommunication/medcom-careCommunication-message-definition|4.0.0\u003c/code\u003e\u003c/p\u003e\n\u003c/div\u003e"
        },
        "eventCoding": {
          "system": "http://medcomfhir.dk/ig/terminology/CodeSystem/medcom-messaging-eventCodes",
          "code": "care-communication-message"
        },
        "destination": [
          {
            "extension": [
              {
                "url": "http://medcomfhir.dk/ig/messaging/StructureDefinition/medcom-messaging-destinationUseExtension",
                "valueCoding": {
                  "system": "http://medcomfhir.dk/ig/terminology/CodeSystem/medcom-messaging-destinationUse",
                  "code": "primary"
                }
              }
            ],
            "endpoint": "https://sor2.sum.dsdn.dk/#id=330461000016004",
            "receiver": {
              "reference": "Organization/a9fd739b-d1a7-4e5c-9387-c77d75bcb1da"
            }
          }
        ],
        "sender": {
          "reference": "Organization/541c6cec-a3d8-4577-9a35-72b08e3e8908"
        },
        "source": {
          "endpoint": "https://sor2.sum.dsdn.dk/#id=1419241000016005"
        },
        "focus": [
          {
            "reference": "Communication/802c035c-6476-4c82-acf8-261bc44226c2"
          }
        ],
        "definition": "http://medcomfhir.dk/ig/carecommunication/medcom-careCommunication-message-definition|4.0.0"
      }
    },
    {
      "fullUrl": "https://fhir.vena.dk/Patient/01958495-cbb3-771e-88e0-414dc06828ee",
      "resource": {
        "resourceType": "Patient",
        "id": "01958495-cbb3-771e-88e0-414dc06828ee",
        "meta": {
          "profile": [
            "http://medcomfhir.dk/ig/core/StructureDefinition/medcom-core-patient"
          ]
        },
        "text": {
          "status": "generated",
          "div": "\u003cdiv xmlns=\"http://www.w3.org/1999/xhtml\"\u003e\n    \u003ca name=\"Patient_01958495-cbb3-771e-88e0-414dc06828ee\"\u003e \u003c/a\u003e\n    \u003cp class=\"res-header-id\"\u003e\u003cb\u003eGenerated Narrative: Patient 01958495-cbb3-771e-88e0-414dc06828ee\u003c/b\u003e\u003c/p\u003e\n    \u003ca name=\"01958495-cbb3-771e-88e0-414dc06828ee\"\u003e \u003c/a\u003e\n    \u003ca name=\"hc01958495-cbb3-771e-88e0-414dc06828ee\"\u003e \u003c/a\u003e\n    \u003ca name=\"01958495-cbb3-771e-88e0-414dc06828ee-da-DK\"\u003e \u003c/a\u003e\n    \u003cp style=\"border: 1px #661aff solid; background-color: #e6e6ff; padding: 10px;\"\u003e\n        Bach Sofie Damgård (official)\n        (no stated gender), DoB Unknown\n         (urn:oid:1.2.208.176.1.2#0810297144)\n    \u003c/p\u003e\n    \u003chr/\u003e\n\u003c/div\u003e"
        },
        "identifier": [
          {
            "system": "urn:oid:1.2.208.176.1.2",
            "value": "0810297144"
          }
        ],
        "name": [
          {
            "use": "official",
            "family": "Bach",
            "given": [
              "Sofie",
              "Damgård"
            ]
          }
        ]
      }
    },
    {
      "fullUrl": "https://fhir.vena.dk/Communication/802c035c-6476-4c82-acf8-261bc44226c2",
      "resource": {
        "resourceType": "Communication",
        "id": "802c035c-6476-4c82-acf8-261bc44226c2",
        "meta": {
          "profile": [
            "http://medcomfhir.dk/ig/carecommunication/StructureDefinition/medcom-careCommunication-communication"
          ]
        },
        "text": {
          "status": "generated",
          "div": "\u003cdiv xmlns=\"http://www.w3.org/1999/xhtml\"\u003e\n    \u003ca name=\"Communication_802c035c-6476-4c82-acf8-261bc44226c2\"\u003e \u003c/a\u003e\n    \u003cp class=\"res-header-id\"\u003e\u003cb\u003eGenerated Narrative: Communication 802c035c-6476-4c82-acf8-261bc44226c2\u003c/b\u003e\u003c/p\u003e\n    \u003ca name=\"802c035c-6476-4c82-acf8-261bc44226c2\"\u003e \u003c/a\u003e\n    \u003ca name=\"hc802c035c-6476-4c82-acf8-261bc44226c2\"\u003e \u003c/a\u003e\n    \u003ca name=\"802c035c-6476-4c82-acf8-261bc44226c2-da-DK\"\u003e \u003c/a\u003e\n    \u003cp\u003e\u003cb\u003eidentifier\u003c/b\u003e: urn:uuid:17e33e7f-c229-4dbe-942c-97194149f8e7\u003c/p\u003e\n    \u003cp\u003e\u003cb\u003estatus\u003c/b\u003e: Unknown\u003c/p\u003e\n    \u003cp\u003e\u003cb\u003ecategory\u003c/b\u003e: \u003cspan title=\"Codes:{ http://medcomfhir.dk/ig/terminology/CodeSystem/medcom-careCommunication-categoryCodesexamination-results }\"\u003eUndersøgelsessvar\u003c/span\u003e\u003c/p\u003e\n    \u003cp\u003e\u003cb\u003esubject\u003c/b\u003e: \u003ca href=\"01958495-cbb3-771e-88e0-414dc06828ee.html\"\u003eSofie Damgård Bach\u003c/a\u003e\u003c/p\u003e\n    \n    \n    \u003cblockquote\u003e\n        \u003cp\u003e\u003cb\u003epayload\u003c/b\u003e\u003c/p\u003e\n        \u003cp\u003e\u003cb\u003eDateTimeExtension\u003c/b\u003e: 2025-03-26T09:18:13Z\u003c/p\u003e\n        \u003cp\u003e\u003cb\u003eIdentifierExtension\u003c/b\u003e: urn:uuid:1678927c-199f-4fd9-9c12-2739e8f86a81\u003c/p\u003e\n        \u003cp\u003e\u003cb\u003ePractitionerExtension\u003c/b\u003e: \u003ca href=\"2a30373f-a357-4f09-bc38-35444a979fc9.html\"\u003enot implemented: text for https://fhir.vena.dk/PractitionerRole/2a30373f-a357-4f09-bc38-35444a979fc9\u003c/a\u003e\u003c/p\u003e\n        \u003cp\u003e\u003cb\u003eContactExtension\u003c/b\u003e: phone: 23423433\u003c/p\u003e\n        \u003cp\u003e\u003cb\u003econtent\u003c/b\u003e: Vedhæftet fil, uden filtype.\u003c/p\u003e\n    \u003c/blockquote\u003e\n    \n    \u003cblockquote\u003e\n        \u003cp\u003e\u003cb\u003epayload\u003c/b\u003e\u003c/p\u003e\n        \u003cp\u003e\u003cb\u003eDateTimeExtension\u003c/b\u003e: 2025-03-26T09:18:13Z\u003c/p\u003e\n        \u003cp\u003e\u003cb\u003eIdentifierExtension\u003c/b\u003e: urn:uuid:b3d0e5f4-e8fb-4564-8b9b-6d8ee8bd1e24\u003c/p\u003e\n        \n        \n        \n    \u003c/blockquote\u003e\n    \n\u003c/div\u003e"
        },
        "extension": [
          {
            "url": "http://medcomfhir.dk/ig/core/StructureDefinition/medcom-core-sender-extension",
            "valueReference": {
              "reference": "PractitionerRole/2a30373f-a357-4f09-bc38-35444a979fc9"
            }
          }
        ],
        "identifier": [
          {
            "value": "urn:uuid:17e33e7f-c229-4dbe-942c-97194149f8e7"
          }
        ],
        "status": "unknown",
        "category": [
          {
            "coding": [
              {
                "system": "http://medcomfhir.dk/ig/terminology/CodeSystem/medcom-careCommunication-categoryCodes",
                "code": "examination-results"
              }
            ]
          }
        ],
        "subject": {
          "reference": "Patient/01958495-cbb3-771e-88e0-414dc06828ee"
        },
        "payload": [
          {
            "extension": [
              {
                "url": "http://medcomfhir.dk/ig/core/StructureDefinition/medcom-core-datetime-extension",
                "valueDateTime": "2025-03-26T09:18:13.225674842Z"
              },
              {
                "url": "http://medcomfhir.dk/ig/core/StructureDefinition/medcom-core-identifier-extension",
                "valueIdentifier": {
                  "value": "urn:uuid:1678927c-199f-4fd9-9c12-2739e8f86a81",
                  "assigner": {
                    "reference": "Organization/541c6cec-a3d8-4577-9a35-72b08e3e8908"
                  }
                }
              },
              {
                "url": "http://medcomfhir.dk/ig/core/StructureDefinition/medcom-core-practitioner-extension",
                "valueReference": {
                  "reference": "PractitionerRole/2a30373f-a357-4f09-bc38-35444a979fc9"
                }
              },
              {
                "url": "http://medcomfhir.dk/ig/core/StructureDefinition/medcom-core-contact-extension",
                "valueContactPoint": {
                  "system": "phone",
                  "value": "23423433"
                }
              }
            ],
            "contentString": "Vedhæftet fil, uden filtype."
          },
          {
            "extension": [
              {
                "url": "http://medcomfhir.dk/ig/core/StructureDefinition/medcom-core-datetime-extension",
                "valueDateTime": "2025-03-26T09:18:13.225674842Z"
              },
              {
                "url": "http://medcomfhir.dk/ig/core/StructureDefinition/medcom-core-identifier-extension",
                "valueIdentifier": {
                  "value": "urn:uuid:b3d0e5f4-e8fb-4564-8b9b-6d8ee8bd1e24",
                  "assigner": {
                    "reference": "Organization/541c6cec-a3d8-4577-9a35-72b08e3e8908"
                  }
                }
              }
            ],
            "contentAttachment": {
              "contentType": "image/png",
              "data": "",
              "title": "sende_linjeskift"
            }
          }
        ]
      }
    },
    {
      "fullUrl": "https://fhir.vena.dk/PractitionerRole/2a30373f-a357-4f09-bc38-35444a979fc9",
      "resource": {
        "resourceType": "PractitionerRole",
        "id": "2a30373f-a357-4f09-bc38-35444a979fc9",
        "meta": {
          "profile": [
            "http://medcomfhir.dk/ig/core/StructureDefinition/medcom-core-practitionerrole"
          ]
        },
        "text": {
          "status": "generated",
          "div": "\u003cdiv xmlns=\"http://www.w3.org/1999/xhtml\"\u003e\n    \u003ca name=\"PractitionerRole_2a30373f-a357-4f09-bc38-35444a979fc9\"\u003e \u003c/a\u003e\n    \u003cp class=\"res-header-id\"\u003e\u003cb\u003eGenerated Narrative: PractitionerRole 2a30373f-a357-4f09-bc38-35444a979fc9\u003c/b\u003e\u003c/p\u003e\n    \u003ca name=\"2a30373f-a357-4f09-bc38-35444a979fc9\"\u003e \u003c/a\u003e\n    \u003ca name=\"hc2a30373f-a357-4f09-bc38-35444a979fc9\"\u003e \u003c/a\u003e\n    \u003ca name=\"2a30373f-a357-4f09-bc38-35444a979fc9-da-DK\"\u003e \u003c/a\u003e\n    \u003cp\u003e\u003cb\u003epractitioner\u003c/b\u003e: \u003ca href=\"0191198e-b421-75d0-b2e1-f2db3519fb73.html\"\u003ePractitioner Thomassine Fritz Hansen\u003c/a\u003e\u003c/p\u003e\n    \u003cp\u003e\u003cb\u003eorganization\u003c/b\u003e: \u003ca href=\"541c6cec-a3d8-4577-9a35-72b08e3e8908.html\"\u003eOrganization Vena - til testbrug\u003c/a\u003e\u003c/p\u003e\n    \u003cp\u003e\u003cb\u003ecode\u003c/b\u003e: \u003cspan title=\"Codes:{ http://medcomfhir.dk/ig/terminology/CodeSystem/medcom-core-PractitionerRolesAutorisationsregistretlaege }\"\u003eLæge\u003c/span\u003e\u003c/p\u003e\n\u003c/div\u003e"
        },
        "practitioner": {
          "reference": "Practitioner/0191198e-b421-75d0-b2e1-f2db3519fb73"
        },
        "organization": {
          "reference": "Organization/541c6cec-a3d8-4577-9a35-72b08e3e8908"
        },
        "code": [
          {
            "coding": [
              {
                "system": "http://medcomfhir.dk/ig/terminology/CodeSystem/medcom-core-PractitionerRolesAutorisationsregistret",
                "code": "laege"
              }
            ]
          }
        ]
      }
    },
    {
      "fullUrl": "https://fhir.vena.dk/Practitioner/0191198e-b421-75d0-b2e1-f2db3519fb73",
      "resource": {
        "resourceType": "Practitioner",
        "id": "0191198e-b421-75d0-b2e1-f2db3519fb73",
        "meta": {
          "profile": [
            "http://medcomfhir.dk/ig/core/StructureDefinition/medcom-core-practitioner"
          ]
        },
        "text": {
          "status": "generated",
          "div": "\u003cdiv xmlns=\"http://www.w3.org/1999/xhtml\"\u003e\n    \u003ca name=\"Practitioner_0191198e-b421-75d0-b2e1-f2db3519fb73\"\u003e \u003c/a\u003e\n    \u003cp class=\"res-header-id\"\u003e\u003cb\u003eGenerated Narrative: Practitioner 0191198e-b421-75d0-b2e1-f2db3519fb73\u003c/b\u003e\u003c/p\u003e\n    \u003ca name=\"0191198e-b421-75d0-b2e1-f2db3519fb73\"\u003e \u003c/a\u003e\n    \u003ca name=\"hc0191198e-b421-75d0-b2e1-f2db3519fb73\"\u003e \u003c/a\u003e\n    \u003ca name=\"0191198e-b421-75d0-b2e1-f2db3519fb73-da-DK\"\u003e \u003c/a\u003e\n    \u003cp\u003e\u003cb\u003ename\u003c/b\u003e: Hansen Thomassine Fritz\u003c/p\u003e\n\u003c/div\u003e"
        },
        "name": [
          {
            "family": "Hansen",
            "given": [
              "Thomassine",
              "Fritz"
            ]
          }
        ]
      }
    },
    {
      "fullUrl": "https://fhir.vena.dk/Organization/541c6cec-a3d8-4577-9a35-72b08e3e8908",
      "resource": {
        "resourceType": "Organization",
        "id": "541c6cec-a3d8-4577-9a35-72b08e3e8908",
        "meta": {
          "profile": [
            "http://medcomfhir.dk/ig/messaging/StructureDefinition/medcom-messaging-organization"
          ]
        },
        "text": {
          "status": "generated",
          "div": "\u003cdiv xmlns=\"http://www.w3.org/1999/xhtml\"\u003e\n    \u003ca name=\"Organization_541c6cec-a3d8-4577-9a35-72b08e3e8908\"\u003e \u003c/a\u003e\n    \u003cp class=\"res-header-id\"\u003e\u003cb\u003eGenerated Narrative: Organization 541c6cec-a3d8-4577-9a35-72b08e3e8908\u003c/b\u003e\u003c/p\u003e\n    \u003ca name=\"541c6cec-a3d8-4577-9a35-72b08e3e8908\"\u003e \u003c/a\u003e\n    \u003ca name=\"hc541c6cec-a3d8-4577-9a35-72b08e3e8908\"\u003e \u003c/a\u003e\n    \u003ca name=\"541c6cec-a3d8-4577-9a35-72b08e3e8908-da-DK\"\u003e \u003c/a\u003e\n    \n    \u003cp\u003e\u003cb\u003eidentifier\u003c/b\u003e: \u003ccode\u003ehttps://www.gs1.org/gln\u003c/code\u003e/5790002759994, \u003ccode\u003eurn:oid:1.2.208.176.1.1\u003c/code\u003e/1419241000016005\u003c/p\u003e\n    \n    \n    \u003cp\u003e\u003cb\u003ename\u003c/b\u003e: Vena - til testbrug\u003c/p\u003e\n    \n\u003c/div\u003e"
        },
        "identifier": [
          {
            "system": "https://www.gs1.org/gln",
            "value": "5790002759994"
          },
          {
            "system": "urn:oid:1.2.208.176.1.1",
            "value": "1419241000016005"
          }
        ],
        "name": "Vena - til testbrug"
      }
    },
    {
      "fullUrl": "https://fhir.vena.dk/Organization/a9fd739b-d1a7-4e5c-9387-c77d75bcb1da",
      "resource": {
        "resourceType": "Organization",
        "id": "a9fd739b-d1a7-4e5c-9387-c77d75bcb1da",
        "meta": {
          "profile": [
            "http://medcomfhir.dk/ig/messaging/StructureDefinition/medcom-messaging-organization"
          ]
        },
        "text": {
          "status": "generated",
          "div": "\u003cdiv xmlns=\"http://www.w3.org/1999/xhtml\"\u003e\n    \u003ca name=\"Organization_a9fd739b-d1a7-4e5c-9387-c77d75bcb1da\"\u003e \u003c/a\u003e\n    \u003cp class=\"res-header-id\"\u003e\u003cb\u003eGenerated Narrative: Organization a9fd739b-d1a7-4e5c-9387-c77d75bcb1da\u003c/b\u003e\u003c/p\u003e\n    \u003ca name=\"a9fd739b-d1a7-4e5c-9387-c77d75bcb1da\"\u003e \u003c/a\u003e\n    \u003ca name=\"hca9fd739b-d1a7-4e5c-9387-c77d75bcb1da\"\u003e \u003c/a\u003e\n    \u003ca name=\"a9fd739b-d1a7-4e5c-9387-c77d75bcb1da-da-DK\"\u003e \u003c/a\u003e\n    \n    \u003cp\u003e\u003cb\u003eidentifier\u003c/b\u003e: \u003ccode\u003ehttps://www.gs1.org/gln\u003c/code\u003e/5790001353308, \u003ccode\u003eurn:oid:1.2.208.176.1.1\u003c/code\u003e/330461000016004\u003c/p\u003e\n    \n    \n    \u003cp\u003e\u003cb\u003ename\u003c/b\u003e: Sundhedsplejen, Aabenraa kommune\u003c/p\u003e\n    \n\u003c/div\u003e"
        },
        "identifier": [
          {
            "system": "https://www.gs1.org/gln",
            "value": "5790001353308"
          },
          {
            "system": "urn:oid:1.2.208.176.1.1",
            "value": "330461000016004"
          }
        ],
        "name": "Sundhedsplejen, Aabenraa kommune"
      }
    },
    {
      "fullUrl": "https://fhir.vena.dk/Provenance/0195d1be-bcea-7a4c-b8ad-3a463549c71a",
      "resource": {
        "resourceType": "Provenance",
        "id": "0195d1be-bcea-7a4c-b8ad-3a463549c71a",
        "meta": {
          "profile": [
            "http://medcomfhir.dk/ig/carecommunication/StructureDefinition/medcom-careCommunication-provenance"
          ]
        },
        "text": {
          "status": "generated",
          "div": "\u003cdiv xmlns=\"http://www.w3.org/1999/xhtml\"\u003e\n    \u003ca name=\"Provenance_0195d1be-bcea-7a4c-b8ad-3a463549c71a\"\u003e \u003c/a\u003e\n    \u003cp class=\"res-header-id\"\u003e\u003cb\u003eGenerated Narrative: Provenance 0195d1be-bcea-7a4c-b8ad-3a463549c71a\u003c/b\u003e\u003c/p\u003e\n    \u003ca name=\"0195d1be-bcea-7a4c-b8ad-3a463549c71a\"\u003e \u003c/a\u003e\n    \u003ca name=\"hc0195d1be-bcea-7a4c-b8ad-3a463549c71a\"\u003e \u003c/a\u003e\n    \u003ca name=\"0195d1be-bcea-7a4c-b8ad-3a463549c71a-da-DK\"\u003e \u003c/a\u003e\n    \u003cp\u003eProvenance for \u003ca href=\"6365e226-c99d-4b08-a10f-245fb4b661f1.html\"\u003eMessageHeader: event=care-communication-message, definition=http://medcomfhir.dk/ig/carecommunication/medcom-careCommunication-message-definition|4.0.0\u003c/a\u003e\u003c/p\u003e\n    \u003cp\u003eSummary\u003c/p\u003e\n    \u003ctable class=\"grid\"\u003e\n        \u003ctr\u003e\u003ctd\u003eOccurrence\u003c/td\u003e\u003ctd\u003e2025-03-26T09:18:13Z\u003c/td\u003e\u003c/tr\u003e\n        \u003ctr\u003e\u003ctd\u003eRecorded\u003c/td\u003e\u003ctd\u003e2025-03-26T09:18:13Z\u003c/td\u003e\u003c/tr\u003e\n        \n\t\t\t\u003ctr\u003e\n\t\t\t\t\u003ctd\u003eActivity\u003c/td\u003e\n\t\t\t\t\u003ctd\u003e\n\t\t\t\t\t\u003cspan title=\"Codes:{ http://medcomfhir.dk/ig/terminology/CodeSystem/medcom-messaging-activityCodes#new-message }\"\u003e\n\t\t\t\t\t\tA new message has been sent\n\t\t\t\t\t\u003c/span\u003e\n\t\t\t\t\u003c/td\u003e\n\t\t\t\u003c/tr\u003e\n\t\t\n    \u003c/table\u003e\n    \n    \u003cp\u003e\u003cb\u003eAgents\u003c/b\u003e\u003c/p\u003e\n    \u003ctable class=\"grid\"\u003e\n        \u003ctr\u003e\u003ctd\u003e\u003cb\u003ewho\u003c/b\u003e\u003c/td\u003e\u003c/tr\u003e\n        \u003ctr\u003e\u003ctd\u003e\u003ca href=\"541c6cec-a3d8-4577-9a35-72b08e3e8908.html\"\u003eVena - til testbrug\u003c/a\u003e\u003c/td\u003e\u003c/tr\u003e\n    \u003c/table\u003e\n    \n\u003c/div\u003e"
        },
        "target": [
          {
            "reference": "MessageHeader/6365e226-c99d-4b08-a10f-245fb4b661f1"
          }
        ],
        "occurredDateTime": "2025-03-26T09:18:13.225674842Z",
        "recorded": "2025-03-26T09:18:13.225674842Z",
        "activity": {
          "coding": [
            {
              "system": "http://medcomfhir.dk/ig/terminology/CodeSystem/medcom-messaging-activityCodes",
              "code": "new-message"
            }
          ]
        },
        "agent": [
          {
            "who": {
              "reference": "Organization/541c6cec-a3d8-4577-9a35-72b08e3e8908"
            }
          }
        ],
        "entity": [
          {
            "role": "source",
            "what": {
              "identifier": {
                "value": "urn:uuid:1678927c-199f-4fd9-9c12-2739e8f86a81"
              }
            }
          },
          {
            "role": "source",
            "what": {
              "identifier": {
                "value": "urn:uuid:b3d0e5f4-e8fb-4564-8b9b-6d8ee8bd1e24"
              }
            }
          }
        ]
      }
    }
  ]
}